looptime,ax,ay,az,gx,gy,gz,baro_temp,baro_pressure
442500,0.1,-1.06,0.28,13.02,-4.44,3.88,30.28,96764.85
442535,-0.24,-0.96,0.11,4.57,-9.56,1.38,30.28,96764.55
442572,-0.19,-0.97,0.23,3.95,-8.23,1,30.28,96764.55
442607,-0.13,-0.96,0.19,-1.46,-10.18,3.71,30.29,96767.11
442641,-0.16,-0.97,0.18,-6.19,0.83,8.54,30.29,96765.98
442676,-0.22,-0.98,0.13,-5.94,-1.82,3.79,30.29,96765.98
442712,-0.2,-0.97,0.1,-0.4,-9.97,-1.49,30.29,96766.91
442746,-0.2,-0.97,0.11,3.25,-18.04,-4.18,30.29,96766.91
442783,-0.19,-0.97,0.12,3.86,0.23,-6.65,30.28,96767.71
442820,-0.13,-0.96,0.14,5.06,9.92,-7,30.28,96767.71
442855,-0.12,-0.97,0.17,6.12,-3.14,-5.26,30.28,96765.88
442889,-0.11,-0.97,0.16,2.76,15.13,-2.82,30.28,96765.88
442921,-0.09,-0.96,0.22,1.66,9.28,0.08,30.28,96765.18
442957,-0.13,-0.97,0.17,-0.37,3.63,1.99,30.28,96765.18
442993,-0.13,-0.97,0.19,-3.18,15.07,2.75,30.28,96765.15
443026,-0.14,-0.97,0.18,-1.59,-7.65,2.13,30.28,96765.15
443060,-0.17,-0.97,0.14,-2.22,-1.8,1.74,30.28,96763.86
443101,-0.15,-0.97,0.16,-0.2,-2.17,0.32,30.28,96767.35
443134,-0.17,-0.97,0.12,0.99,-4.32,-0.1,30.28,96767.35
443168,-0.16,-0.97,0.16,1.48,4.37,-0.27,30.28,96765.85
443203,-0.16,-0.97,0.16,3.02,-2.38,-0.55,30.28,96765.85
443239,-0.17,-0.97,0.16,1.64,9.13,-0.96,30.28,96764.02
443273,-0.16,-0.97,0.18,1.61,8.15,-1.1,30.28,96764.02
443307,-0.15,-0.97,0.17,1.52,1.15,-1.45,30.28,96766.35
443341,-0.16,-0.97,0.18,0.48,2.44,-1.13,30.28,96766.35
443382,-0.15,-0.96,0.18,-0.86,2.08,-0.7,30.28,96765.35
443438,-0.15,-0.97,0.16,-1.81,-1.6,0.81,30.27,96764.46
443470,-0.15,-0.96,0.15,-1.73,-1.74,1.16,30.27,96764.46
443506,-0.16,-0.97,0.15,-1.18,-2.59,1.29,30.28,96765.99
443543,-0.16,-0.97,0.15,-0.25,-1.66,1.13,30.28,96765.99
443577,-0.16,-0.96,0.15,0.5,-0.01,0.55,30.28,96767.17
443611,-0.17,-0.97,0.14,1.35,1.07,-0.27,30.28,96767.17
443644,-0.16,-0.97,0.15,1.96,1.94,-0.87,30.28,96766.17
443680,-0.16,-0.97,0.16,2.3,2.44,-1.43,30.28,96766.17
443719,-0.16,-0.97,0.17,1.57,2.21,-1.43,30.28,96767.32
443756,-0.15,-0.96,0.18,0.68,1.82,-0.82,30.27,96764.96
443807,-0.15,-0.97,0.17,-0.75,-0.26,-0.01,30.27,96764.96
443843,-0.15,-0.96,0.17,-1.12,-0.98,0.77,30.27,96765.95
443878,-0.15,-0.97,0.16,-1.39,-1.85,1.24,30.27,96765.95
443913,-0.16,-0.97,0.16,-1.24,-1.88,1.3,30.27,96766.28
443948,-0.16,-0.97,0.14,-1.07,-1.66,1.01,30.27,96766.28
443982,-0.17,-0.96,0.14,0.39,-0.61,0.58,30.27,96766.45
444017,-0.17,-0.97,0.15,1.38,0.9,-0.29,30.27,96765.95
444057,-0.16,-0.97,0.15,1.8,1.85,-1.17,30.27,96765.95
444091,-0.16,-0.97,0.16,1.75,1.8,-1.68,30.27,96769.44
444125,-0.16,-0.97,0.17,1.35,2.14,-1.61,30.27,96769.44
444161,-0.14,-0.97,0.17,0.86,1.57,-0.96,30.27,96765.28
444195,-0.14,-0.96,0.16,0.21,0.57,-0.07,30.27,96765.28
444228,-0.14,-0.97,0.17,-0.8,-0.5,0.71,30.27,96766.58
444263,-0.16,-0.97,0.17,-1.2,-1.37,1.27,30.27,96766.58
444299,-0.16,-0.96,0.16,-1.06,-1.95,1.21,30.27,96765.39
444337,-0.16,-0.97,0.15,-0.81,-1.45,1.18,30.27,96765.39
444370,-0.17,-0.97,0.15,-0.04,-1.02,0.66,30.27,96767.75
444406,-0.17,-0.97,0.14,0.54,-0.24,-0.23,30.27,96767.75
444442,-0.16,-0.97,0.14,0.99,1.19,-0.87,30.27,96767.91
444475,-0.17,-0.97,0.15,1.64,1.51,-1.58,30.27,96767.91
444509,-0.16,-0.97,0.17,1.38,1.94,-1.48,30.27,96767.91
444545,-0.15,-0.97,0.17,1.31,2.12,-0.82,30.27,96767.41
444580,-0.14,-0.97,0.17,0.61,0.81,-0.38,30.27,96767.41
444613,-0.15,-0.97,0.17,-0.17,0.03,0.42,30.27,96766.58
444651,-0.15,-0.97,0.17,-0.97,-0.95,1.03,30.27,96766.58
444688,-0.16,-0.97,0.16,-0.83,-1.48,1.15,30.27,96763.57
444722,-0.16,-0.97,0.16,-1.26,-1.86,1.18,30.27,96763.57
444755,-0.16,-0.96,0.16,-0.54,-1.37,0.63,30.27,96766.22
444790,-0.17,-0.97,0.15,-0.19,-0.7,0.05,30.27,96766.22
444826,-0.17,-0.97,0.15,0.59,-0.04,-0.62,30.27,96766.39
444860,-0.16,-0.97,0.14,1.08,1.21,-1.32,30.27,96766.39
444894,-0.16,-0.97,0.16,1.29,1.7,-1.42,30.27,96766.22
444934,-0.15,-0.96,0.16,1.29,1.76,-1.2,30.27,96764.26
444968,-0.15,-0.96,0.16,1.19,1.22,-0.74,30.27,96764.26
445002,-0.15,-0.96,0.17,0.33,0.57,0.19,30.27,96765.46
445038,-0.15,-0.97,0.17,-0.63,-0.12,0.84,30.27,96765.46
445073,-0.15,-0.97,0.16,-1.07,-1.02,1.07,30.27,96765.46
445108,-0.16,-0.97,0.16,-1.1,-1.66,1.19,30.27,96765.46
445142,-0.16,-0.97,0.15,-1.09,-1.69,0.77,30.27,96766.12
445177,-0.17,-0.96,0.15,-0.16,-0.96,-0.04,30.27,96766.12
445211,-0.16,-0.97,0.15,0.15,-0.2,-0.71,30.28,96764.82
445250,-0.16,-0.97,0.15,0.7,0.52,-0.97,30.28,96764.82
445286,-0.16,-0.97,0.16,1.23,1.41,-1.02,30.28,96766.32
445320,-0.15,-0.96,0.16,1.64,1.54,-0.99,30.28,96766.32
445353,-0.15,-0.96,0.17,1.34,1.57,-0.79,30.28,96765.49
445388,-0.15,-0.97,0.17,0.91,1.13,-0.24,30.28,96765.49
445424,-0.15,-0.97,0.16,-0.1,0.18,0.25,30.28,96764.16
445458,-0.16,-0.97,0.16,-0.45,-0.17,0.52,30.28,96766.49
445492,-0.15,-0.96,0.16,-1.15,-1.05,0.81,30.28,96766.49
445527,-0.16,-0.97,0.16,-0.95,-1.36,0.37,30.28,96767.32
445568,-0.17,-0.97,0.15,-0.84,-1.16,0.23,30.28,96767.32
445600,-0.16,-0.97,0.14,-0.11,-0.87,-0.13,30.28,96765.52
445634,-0.16,-0.97,0.15,0.47,-0.15,-0.53,30.28,96765.52
445670,-0.16,-0.97,0.15,1.03,0.64,-0.62,30.28,96766.38
445706,-0.16,-0.96,0.16,1.52,1.38,-0.59,30.28,96766.38
445739,-0.16,-0.97,0.16,1.54,1.38,-0.24,30.28,96767.71
445772,-0.15,-0.97,0.17,1.22,1.21,-0.21,30.28,96767.71
445808,-0.15,-0.97,0.17,0.54,0.57,-0.19,30.28,96765.05
445847,-0.16,-0.97,0.17,0.16,-0.14,0.34,30.28,96765.05
445881,-0.15,-0.97,0.17,-0.59,-0.64,0.4,30.28,96766.88
445916,-0.15,-0.97,0.17,-1.09,-1.19,0.42,30.28,96766.88
445952,-0.17,-0.97,0.16,-0.75,-1.36,0.11,30.29,96768.77
445985,-0.16,-0.97,0.15,-0.72,-0.99,-0.26,30.29,96764.78
446019,-0.16,-0.97,0.14,-0.17,-0.52,-0.35,30.29,96764.78
446054,-0.16,-0.97,0.15,0.13,0.05,-0.64,30.29,96767.08
446090,-0.15,-0.97,0.16,0.99,0.78,-0.64,30.29,96767.08
446124,-0.15,-0.97,0.15,1.28,1.08,-0.21,30.29,96766.41
446163,-0.15,-0.97,0.16,1.35,1.22,-0.06,30.29,96766.41
446198,-0.15,-0.97,0.17,0.99,1.07,0.16,30.29,96768.6
446232,-0.16,-0.97,0.17,0.51,0.34,0.14,30.29,96768.6
446267,-0.16,-0.97,0.17,0.01,-0.29,0.39,30.29,96768.07
446303,-0.16,-0.97,0.16,-0.55,-0.82,0.13,30.29,96768.07
446337,-0.16,-0.97,0.16,-0.91,-1.07,-0.47,30.28,96766.05
446371,-0.16,-0.97,0.16,-0.83,-1.21,-0.41,30.28,96766.05
446405,-0.16,-0.97,0.15,-0.65,-0.67,-0.48,30.29,96766.58
446445,-0.15,-0.97,0.15,0.28,-0.04,-0.42,30.29,96767.61
446479,-0.15,-0.97,0.15,0.73,0.37,-0.15,30.29,96767.61
446513,-0.15,-0.97,0.15,0.83,0.52,-0.1,30.29,96766.75
446548,-0.16,-0.97,0.16,0.97,0.73,0.07,30.29,96766.75
446583,-0.16,-0.97,0.17,0.53,0.76,0.14,30.28,96768.04
446616,-0.16,-0.97,0.17,0.56,0.14,0.1,30.28,96768.04
446651,-0.16,-0.97,0.16,0.15,0.21,-0.03,30.28,96762.53
446687,-0.16,-0.97,0.16,-0.22,-0.46,-0.1,30.28,96762.53
446722,-0.16,-0.97,0.17,-0.6,-0.69,-0.44,30.28,96766.85
446758,-0.16,-0.97,0.16,-0.43,-0.75,-0.77,30.28,96766.85
446794,-0.15,-0.97,0.15,-0.49,-0.53,-0.42,30.28,96765.49
446830,-0.15,-0.97,0.15,-0.07,0.23,0.05,30.28,96765.49
446865,-0.15,-0.97,0.14,0.64,-0.2,0.02,30.28,96765.02
446919,-0.16,-0.97,0.17,0.65,0.57,0.14,30.28,96766.82
446956,-0.15,-0.97,0.16,0.97,0.21,-0.01,30.28,96766.82
446992,-0.16,-0.97,0.16,0.42,0.26,-0.32,30.27,96764.59
447026,-0.16,-0.97,0.16,0.1,0.54,-0.68,30.27,96764.59
447058,-0.16,-0.97,0.17,-0.51,0.21,-0.84,30.27,96768.58
447100,-0.16,-0.97,0.16,-0.25,-0.5,-0.93,30.27,96764.53
447135,-0.15,-0.97,0.17,-0.65,0.46,-0.76,30.27,96764.53
447168,-0.15,-0.97,0.16,-0.57,-1.28,-0.33,30.27,96768.21
447203,-0.15,-0.96,0.15,-0.07,-0.09,0.39,30.27,96768.21
447239,-0.15,-0.96,0.16,0.44,0.55,0.9,30.27,96767.85
447273,-0.15,-0.97,0.15,0.83,0.38,1.06,30.27,96767.85
447306,-0.16,-0.97,0.16,0.93,0.55,1.07,30.27,96766.52
447341,-0.16,-0.97,0.16,1.08,0.12,0.54,30.27,96766.52
447380,-0.16,-0.97,0.17,0.64,0.87,0.13,30.26,96767.52
447415,-0.16,-0.97,0.17,0.22,0.08,-0.61,30.26,96767.52
447451,-0.16,-0.97,0.16,-0.36,0,-0.97,30.26,96766.85
447485,-0.15,-0.97,0.16,-0.4,-0.15,-0.94,30.26,96766.85
447520,-0.15,-0.97,0.16,-0.33,-0.23,-0.53,30.26,96767.97
447554,-0.15,-0.96,0.15,-0.39,-0.41,-0.24,30.26,96766.32
447589,-0.15,-0.97,0.16,0.04,-0.53,0.17,30.26,96765.95
447624,-0.15,-0.96,0.15,0.53,0.26,0.37,30.26,96768.14
447659,-0.15,-0.97,0.16,0.51,0.14,0.78,30.26,96768.14
447697,-0.16,-0.96,0.16,0.76,0.44,0.94,30.26,96766.45
447733,-0.16,-0.97,0.16,0.45,0.18,0.63,30.26,96766.45
447783,-0.16,-0.97,0.16,-0.05,0.06,0.05,30.25,96765.06
447819,-0.16,-0.97,0.16,0.39,-0.3,-0.38,30.25,96764.06
447855,-0.16,-0.96,0.16,0.22,0.41,-0.52,30.25,96764.06
447890,-0.16,-0.97,0.16,0.35,0.09,-0.58,30.25,96768.21
447923,-0.16,-0.97,0.16,0.28,0.17,-0.67,30.25,96768.21
447959,-0.15,-0.97,0.16,0.36,0.61,-0.41,30.25,96766.89
447995,-0.15,-0.97,0.17,-0.1,-0.01,-0.09,30.25,96766.89
448033,-0.15,-0.97,0.16,0.01,-0.11,-0.01,30.25,96767.18
448067,-0.16,-0.97,0.15,0.01,-0.52,0.51,30.25,96767.18
448103,-0.16,-0.97,0.16,-0.16,-0.32,0.42,30.25,96766.05
448139,-0.16,-0.97,0.16,-0.1,-0.43,0.13,30.25,96766.05
448172,-0.16,-0.97,0.16,0.28,-0.17,-0.26,30.25,96765.19
448205,-0.16,-0.96,0.16,0.38,0.31,-0.16,30.25,96765.19
448241,-0.15,-0.97,0.15,0.47,0.17,-0.19,30.25,96766.35
448277,-0.16,-0.97,0.15,0.7,0.72,-0.1,30.25,96765.36
448314,-0.15,-0.96,0.15,0.96,1.05,-0.09,30.25,96765.36
448349,-0.16,-0.96,0.16,0.62,0.93,-0.07,30.25,96767.35
448385,-0.16,-0.97,0.16,0.32,0.63,-0.07,30.25,96767.35
448418,-0.15,-0.97,0.17,0.28,-0.01,0.2,30.25,96767.08
448452,-0.16,-0.97,0.17,-0.33,-0.11,0.03,30.25,96767.08
448487,-0.16,-0.97,0.17,-0.39,-0.85,0.16,30.25,96765.22
448523,-0.16,-0.97,0.16,-0.36,-0.81,0.37,30.25,96765.22
448557,-0.16,-0.97,0.15,-0.36,-0.78,0.07,30.25,96767.91
448590,-0.16,-0.97,0.16,-0.14,0.05,-0.19,30.25,96767.91
448630,-0.15,-0.97,0.15,0.76,0.31,-0.16,30.25,96768.25
448665,-0.16,-0.97,0.16,0.83,0.99,-0.3,30.25,96768.25
448699,-0.15,-0.96,0.17,0.82,0.84,-0.16,30.26,96769.1
448735,-0.15,-0.97,0.17,0.82,0.72,-0.07,30.26,96769.74
448770,-0.16,-0.97,0.17,0.5,0.37,0,30.25,96769.74
448804,-0.16,-0.97,0.17,0.21,-0.09,-0.12,30.26,96767.64
448838,-0.15,-0.96,0.16,-0.39,-0.08,-0.23,30.26,96767.64
448873,-0.15,-0.97,0.17,-0.33,-0.85,-0.03,30.26,96765.65
448912,-0.16,-0.97,0.15,-0.36,-1.08,0.11,30.26,96765.65
448946,-0.16,-0.97,0.16,-0.45,-0.37,-0.1,30.26,96766.82
448983,-0.16,-0.97,0.16,-0.11,-0.32,0.1,30.26,96766.82
449016,-0.16,-0.97,0.15,0.76,0.35,-0.21,30.26,96767.81
449050,-0.15,-0.97,0.16,1,1.24,0.17,30.26,96767.81
449084,-0.16,-0.97,0.16,0.82,0.81,-0.01,30.26,96765.65
449120,-0.16,-0.97,0.16,0.74,0.9,-0.36,30.26,96765.65
449155,-0.16,-0.97,0.16,0.09,0.38,-0.3,30.26,96766.12
449188,-0.15,-0.97,0.17,-0.01,-0.29,-0.29,30.26,96766.12
449228,-0.16,-0.97,0.16,-0.45,0.08,-0.29,30.25,96766.72
449263,-0.16,-0.96,0.16,-0.52,-0.75,-0.1,30.25,96767.71
449297,-0.16,-0.97,0.15,-0.4,-0.92,-0.15,30.25,96767.71
449331,-0.16,-0.97,0.16,-0.01,0.06,0.11,30.25,96769.17
449367,-0.15,-0.97,0.16,-0.25,-0.84,-0.01,30.25,96769.17
449402,-0.16,-0.97,0.15,0.09,-0.26,0.13,30.25,96768.38
449435,-0.16,-0.97,0.16,0.44,0.29,-0.32,30.25,96768.38
449469,-0.16,-0.97,0.16,0.54,0.31,-0.38,30.24,96767.78
449505,-0.16,-0.97,0.16,0.79,0.57,-0.58,30.24,96767.78
449544,-0.16,-0.96,0.16,0.54,0.4,-0.39,30.24,96768.94
449577,-0.15,-0.96,0.16,0.39,0.12,-0.12,30.24,96768.94
449611,-0.16,-0.97,0.17,-0.17,0.55,-0.13,30.24,96767.61
449647,-0.15,-0.97,0.17,-0.59,-0.55,0.08,30.24,96767.61
449682,-0.15,-0.97,0.16,-0.8,-0.98,0.31,30.24,96768.91
449715,-0.16,-0.97,0.16,-0.68,-1.02,0.43,30.24,96768.91
449750,-0.15,-0.96,0.15,-0.26,-0.66,0.46,30.24,96767.08
449785,-0.16,-0.97,0.16,-0.13,-0.46,0.4,30.24,96768.94
449823,-0.16,-0.96,0.15,0.51,0.05,0.02,30.24,96768.94
449859,-0.16,-0.97,0.15,0.9,0.32,-0.48,30.23,96767.05
449894,-0.16,-0.97,0.16,0.96,0.72,-0.38,30.23,96767.05
449929,-0.16,-0.97,0.16,0.86,0.83,-0.3,30.23,96764.19
449964,-0.15,-0.97,0.16,0.8,0.66,-0.18,30.23,96764.19
449998,-0.15,-0.97,0.17,0.53,0.26,-0.33,30.23,96765.86
450033,-0.16,-0.97,0.16,0.03,0.05,-0.21,30.23,96765.86
450068,-0.15,-0.97,0.16,-0.39,-0.56,0.37,30.23,96765.05
450102,-0.16,-0.97,0.16,-0.65,-0.49,0.4,30.23,96765.05
450142,-0.16,-0.97,0.16,-0.62,-1.02,0.55,30.23,96766.71
450176,-0.16,-0.96,0.15,-0.4,-0.96,-0.09,30.23,96766.71
450209,-0.16,-0.97,0.16,0.13,-0.09,0.05,30.23,96768.52
450245,-0.16,-0.97,0.15,0.56,0.2,-0.52,30.23,96766.02
450280,-0.15,-0.97,0.16,0.36,0.67,-0.39,30.23,96766.02
450315,-0.15,-0.97,0.16,0.83,1.07,-0.48,30.23,96766.82
450374,-0.15,-0.97,0.16,0.54,1.05,0.08,30.23,96766.71
450408,-0.15,-0.97,0.17,0.68,0.31,0.26,30.23,96766.71
450448,-0.16,-0.97,0.17,0.36,-0.2,0.49,30.23,96765.05
450483,-0.16,-0.97,0.16,-0.14,-0.2,0.4,30.23,96765.05
450518,-0.16,-0.97,0.16,-0.34,-0.84,0.4,30.23,96765.86
450551,-0.16,-0.97,0.15,-0.28,-1.39,0.28,30.23,96765.86
450586,-0.16,-0.96,0.15,-0.55,-0.64,-0.01,30.23,96764.56
450621,-0.16,-0.96,0.16,-0.1,-0.27,-0.7,30.23,96764.56
450656,-0.16,-0.97,0.15,-0.02,-0.3,-0.55,30.23,96767.38
450690,-0.16,-0.97,0.15,0.3,-0.04,-0.42,30.23,96767.38
450724,-0.15,-0.97,0.16,0.8,0.35,-0.29,30.24,96768.91
450762,-0.15,-0.96,0.16,1.11,0.73,0.05,30.24,96768.91
450797,-0.16,-0.96,0.16,0.79,1.19,0.22,30.23,96769.01
450833,-0.16,-0.96,0.16,0.64,-0.01,-0.01,30.23,96766.55
450867,-0.16,-0.97,0.17,0.25,0.26,0.08,30.23,96766.55
450900,-0.16,-0.97,0.17,-0.37,0.09,-0.1,30.23,96765.72
450934,-0.16,-0.97,0.16,-0.48,-0.92,0.08,30.23,96765.72
450970,-0.16,-0.97,0.16,-0.88,-1.04,0,30.23,96766.02
451005,-0.16,-0.97,0.15,-0.83,-0.81,0.11,30.23,96766.02
451038,-0.15,-0.97,0.15,-0.45,-0.69,-0.15,30.23,96765.32
451079,-0.16,-0.97,0.15,0.21,-0.09,-0.19,30.23,96765.32
451115,-0.16,-0.97,0.15,1.2,0.6,0.16,30.23,96766.63
451148,-0.16,-0.97,0.15,0.93,0.32,-0.19,30.23,96766.63
451181,-0.16,-0.97,0.15,1.09,1.48,-0.15,30.23,96768.61
451218,-0.16,-0.97,0.17,1.06,0.41,-0.07,30.23,96768.61
451254,-0.16,-0.97,0.17,0.41,0.83,-0.24,30.23,96766.13
451287,-0.16,-0.97,0.16,0.28,0.78,-0.16,30.23,96766.13
451320,-0.15,-0.97,0.16,-0.07,-0.38,-0.12,30.23,96767.65
451361,-0.15,-0.96,0.16,-0.78,-0.88,0.19,30.23,96766.99
451395,-0.16,-0.96,0.16,-1.06,-0.78,0.31,30.23,96766.99
451429,-0.15,-0.96,0.15,-0.49,-1.24,0.16,30.22,96767.75
451464,-0.16,-0.97,0.16,-0.33,-0.78,0.28,30.22,96767.75
451500,-0.16,-0.96,0.15,0.38,0.34,0.1,30.23,96768.61
451533,-0.16,-0.97,0.15,0.65,0.11,-0.04,30.23,96768.61
451567,-0.16,-0.97,0.16,1.11,1.39,-0.29,30.23,96765.46
451602,-0.16,-0.96,0.16,1.38,1.3,-0.44,30.23,96765.46
451637,-0.16,-0.97,0.16,1.08,0.37,-0.01,30.22,96765.39
451676,-0.16,-0.96,0.16,0.67,0.95,-0.12,30.22,96765.39
451712,-0.15,-0.96,0.17,0.12,-0.3,0.02,30.22,96766.75
451763,-0.15,-0.97,0.15,-0.74,-0.27,0.23,30.22,96766.75
451799,-0.16,-0.97,0.16,-0.39,-1.43,0.17,30.22,96766.75
451833,-0.16,-0.97,0.15,-0.43,-0.92,0.23,30.22,96764.57
451868,-0.16,-0.97,0.16,-0.08,-0.41,0.02,30.22,96764.57
451902,-0.16,-0.97,0.15,0.19,-0.04,-0.12,30.22,96765.89
451938,-0.16,-0.97,0.15,0.91,0.9,0.1,30.22,96765.89
451978,-0.16,-0.97,0.16,0.96,0.49,-0.19,30.22,96766.89
452013,-0.15,-0.97,0.16,1,1.44,-0.27,30.22,96768.05
452046,-0.15,-0.97,0.16,0.97,0.61,-0.44,30.22,96768.05
452080,-0.16,-0.97,0.17,0.21,0.34,-0.26,30.22,96766.92
452116,-0.15,-0.97,0.17,-0.16,0.06,-0.33,30.22,96766.92
452151,-0.15,-0.97,0.17,-0.39,-0.3,-0.04,30.22,96764.74
452184,-0.16,-0.97,0.16,-0.71,-0.58,0.05,30.22,96764.74
452218,-0.15,-0.97,0.16,-0.59,-1.22,-0.12,30.22,96766.22
452254,-0.15,-0.96,0.15,-0.23,-0.76,0.29,30.22,96766.22
452303,-0.16,-0.97,0.15,0.41,-0.09,0.26,30.22,96766.72
452340,-0.16,-0.97,0.15,0.83,0.32,0.11,30.22,96765.73
452378,-0.16,-0.97,0.15,0.94,0.55,-0.07,30.22,96765.73
452416,-0.16,-0.96,0.16,1.02,0.57,-0.41,30.22,96767.22
452454,-0.16,-0.97,0.16,0.62,0.5,-0.58,30.22,96767.22
452491,-0.15,-0.96,0.16,0.35,0.34,-0.94,30.22,96764.89
452528,-0.15,-0.97,0.16,-0.43,-0.11,-0.41,30.22,96764.89
452564,-0.16,-0.97,0.16,-0.33,-0.52,0.2,30.22,96768.39
452601,-0.15,-0.97,0.15,-0.16,-0.43,0.07,30.22,96767.22
452643,-0.16,-0.97,0.16,-0.31,-0.64,0.19,30.22,96767.22
452680,-0.15,-0.97,0.15,0.41,-0.29,0.58,30.22,96765.72
452716,-0.16,-0.97,0.16,0.57,0.2,0.49,30.22,96765.72
452753,-0.16,-0.97,0.15,0.68,0.35,-0.12,30.22,96767.55
452791,-0.16,-0.97,0.16,0.53,0.67,-0.24,30.22,96767.55
452828,-0.16,-0.97,0.16,0.85,0.76,-0.65,30.22,96767.06
452862,-0.15,-0.97,0.16,0.35,0.5,-0.5,30.22,96767.78
452899,-0.15,-0.97,0.16,0.42,0.31,-0.59,30.23,96767.78
452943,-0.15,-0.97,0.17,0.07,-0.09,-0.07,30.22,96766.09
452978,-0.15,-0.96,0.16,-0.07,-0.18,0.1,30.22,96766.09
453014,-0.15,-0.96,0.16,-0.11,-0.38,0.52,30.22,96765.6
453053,-0.16,-0.97,0.16,-0.43,-0.7,0.6,30.22,96765.6
453091,-0.16,-0.97,0.15,-0.13,-0.85,0.22,30.23,96767.95
453126,-0.16,-0.97,0.15,0.06,-0.3,-0.15,30.23,96768.52
453161,-0.16,-0.97,0.16,-0.11,-0.24,-0.07,30.23,96768.52
453200,-0.16,-0.97,0.16,0.36,0.11,-0.44,30.23,96768.17
453237,-0.16,-0.97,0.15,0.5,0.41,-0.68,30.23,96768.17
453277,-0.15,-0.97,0.16,0.56,0.54,-0.53,30.23,96766.66
453314,-0.15,-0.97,0.16,0.39,0.63,-0.53,30.23,96766.66
453352,-0.16,-0.97,0.16,0.45,0.67,-0.24,30.23,96766.71
453389,-0.15,-0.96,0.17,0.54,0.12,0.11,30.23,96767.18
453425,-0.15,-0.97,0.17,-0.14,-0.01,0.29,30.23,96767.18
453462,-0.15,-0.97,0.16,-0.3,-0.47,0.43,30.23,96767.55
453499,-0.16,-0.96,0.15,-0.42,-0.44,0.31,30.23,96767.55
453536,-0.17,-0.97,0.15,-0.16,-0.46,0.25,30.24,96767.58
453578,-0.16,-0.97,0.16,-0.02,-0.03,0.11,30.24,96767.58
453615,-0.16,-0.97,0.16,0.3,0.09,-0.29,30.24,96765.25
453652,-0.16,-0.97,0.16,0.56,0.18,-0.5,30.24,96765.92
453689,-0.16,-0.96,0.16,0.67,0.7,-0.55,30.24,96765.92
453727,-0.16,-0.97,0.16,0.71,0.49,-0.26,30.24,96765.95
453764,-0.16,-0.97,0.15,0.33,-2.3,-0.19,30.24,96765.95
453801,-0.14,-0.98,0.11,0.27,6.43,-0.62,30.24,96763.92
453864,-0.11,-0.97,0.2,1.05,4.72,-0.87,30.24,96765.95
453899,-0.13,-0.97,0.18,0.25,8.78,-0.91,30.24,96765.95
453943,-0.16,-0.97,0.12,-0.91,3.01,-0.44,30.24,96765.92
453980,-0.18,-0.97,0.13,-0.65,-1.79,-0.18,30.24,96767.75
454016,-0.18,-0.97,0.13,-0.37,-4.55,0.14,30.24,96767.75
454053,-0.16,-0.97,0.12,0.25,-4.04,0.39,30.24,96764.63
454090,-0.16,-0.96,0.13,0.45,-1.83,0.72,30.24,96764.63
454127,-0.17,-0.97,0.15,0.36,-1.22,0.37,30.24,96765.78
454163,-0.16,-0.97,0.15,0.61,-1.91,0.2,30.24,96765.78
454201,-0.16,-0.96,0.16,-0.17,-1.88,-0.07,30.24,96764.96
454237,-0.16,-0.97,0.18,-0.22,-1.24,-0.41,30.24,96764.96
454278,-0.15,-0.96,0.17,-0.54,0.32,-0.32,30.24,96763.97
454316,-0.15,-0.97,0.17,-0.51,0.86,-0.53,30.24,96765.63
454352,-0.16,-0.97,0.17,-0.25,0.75,0.03,30.24,96765.63
454388,-0.15,-0.96,0.15,-0.07,0.44,0.02,30.24,96763.46
454425,-0.16,-0.96,0.15,0.54,0.81,0.37,30.24,96763.46
454463,-0.16,-0.97,0.15,0.86,0.95,0.25,30.24,96767.12
454500,-0.16,-0.96,0.15,0.97,0.84,0.46,30.24,96767.12
454536,-0.16,-0.97,0.16,0.67,0.87,0.14,30.24,96765.95
454578,-0.17,-0.97,0.16,0.62,0.15,-0.27,30.24,96765.13
454615,-0.16,-0.97,0.17,0.03,-0.11,-0.45,30.24,96765.13
454650,-0.16,-0.96,0.16,-0.14,-0.46,-0.5,30.24,96768.28
454686,-0.15,-0.97,0.17,-0.49,-0.69,-0.56,30.24,96768.28
454724,-0.15,-0.97,0.16,-0.25,-0.37,-0.35,30.24,96767.46
454762,-0.15,-0.97,0.16,-0.07,-0.67,0.26,30.24,96764.63
454798,-0.15,-0.99,0.01,-2.94,9.74,0.08,30.24,96764.29
454834,-0.2,-0.95,0.05,-3.96,106.98,-0.41,30.24,96765.63
454872,-0.1,-0.97,0.16,2.82,52.7,-1.26,30.24,96765.63
454914,-0.18,-0.96,0.14,9.93,-36.2,-2.33,30.24,96766.08
454949,-0.26,-0.96,0.19,1.23,20.83,-2.09,30.24,96766.08
454987,-0.15,-0.96,0.24,-0.78,1.15,-2,30.24,96770.1
455025,-0.16,-0.97,0.18,-3.81,-7.91,-0.52,30.24,96766.78
455062,-0.18,-0.96,0.19,-6.6,1.53,0.6,30.24,96766.78
455098,-0.13,-0.96,0.12,-5.62,-11.65,1.48,30.24,96768.12
455135,-0.17,-0.96,0.1,-4.31,-3.98,2.84,30.24,96768.12
455173,-0.19,-0.97,0.1,-0.59,-3.48,2.28,30.25,96765
455214,-0.16,-0.97,0.08,3.05,-0.58,1.48,30.25,96765
455250,-0.19,-0.97,0.11,5.57,2.63,0.2,30.24,96766.29
455287,-0.2,-0.97,0.15,6.25,5.1,-1.72,30.24,96763.96
455324,-0.17,-0.97,0.16,5.22,7.97,-2.58,30.24,96763.96
455361,-0.19,-0.97,0.19,3.2,4.72,-2.71,30.24,96767.28
455398,-0.16,-0.96,0.19,-0.48,2.37,-2.39,30.24,96767.28
455435,-0.14,-0.96,0.19,-3.67,-2.26,-0.96,30.24,96768.28
455472,-0.16,-0.97,0.17,-4.77,-5.14,0.72,30.24,96768.28
455507,-0.15,-0.97,0.13,-5.2,-5.37,2.23,30.24,96767.61
455549,-0.16,-0.97,0.1,-3.27,-5.88,3.19,30.24,96766.63
455585,-0.2,-0.97,0.11,-0.31,-1.27,2.77,30.24,96766.63
455622,-0.18,-0.97,0.1,2.65,2.03,1.71,30.24,96766.63
455660,-0.19,-0.97,0.11,4.91,-0.92,-0.18,30.24,96766.63
455697,-0.2,-0.97,0.13,5.11,5.02,-2.12,30.24,96766.13
455733,-0.17,-0.97,0.14,4.5,5.36,-3.25,30.24,96766.13
455770,-0.17,-0.98,0.17,1.95,1.85,-3.23,30.24,96766.63
455808,-0.15,-0.97,0.17,-0.33,-0.17,-2.12,30.24,96766.63
455845,-0.14,-0.97,0.17,-1.87,-1.97,0.31,30.25,96767.49
455902,-0.16,-0.97,0.15,-3.38,-4.9,3.12,30.24,96766.96
455942,-0.15,-0.97,0.13,-2.51,-5.05,4.42,30.24,96766.96
455980,-0.2,-0.96,0.14,-1.33,-2.7,3.58,30.24,96765.96
456015,-0.2,-0.97,0.13,0.24,-1.39,1.79,30.25,96765.32
456051,-0.13,-1.08,0.06,-2.36,-8.99,-4.59,30.25,96765.32
456090,-0.28,-1.01,0.17,0.39,-1.13,-3.83,30.24,96766.96
456129,-0.28,-0.94,0.2,0.36,8.17,-3.72,30.24,96766.96
456164,-0.25,-0.93,0.22,2.06,2.93,-2.45,30.24,96768.28
456206,-0.13,-0.97,0.16,0.41,-6.5,-1.57,30.24,96767.28
456245,-0.15,-0.97,0.19,-1.26,-3.14,0.1,30.24,96767.28
456282,-0.11,-0.97,0.15,-2.42,0.2,1.71,30.24,96767.96
456316,-0.15,-0.97,0.15,-2.51,-1.08,3.53,30.24,96767.96
456354,-0.19,-0.97,0.14,-1.81,-5.17,3.56,30.24,96766.95
456393,-0.16,-0.97,0.12,-0.57,-4.41,2.36,30.24,96766.95
456429,-0.2,-0.97,0.14,0.48,0.15,0.48,30.24,96768.45
456465,-0.2,-0.96,0.14,1.87,3.19,-1.97,30.24,96768.45
456502,-0.17,-0.97,0.13,2.45,3.33,-3.02,30.24,96768.12
456544,-0.18,-0.97,0.16,2.18,3.22,-3.4,30.25,96767.82
456581,-0.16,-0.97,0.15,1.57,2.06,-2.76,30.25,96767.82
456617,-0.13,-0.97,0.16,0.5,2.08,-1.08,30.24,96767.46
456654,-0.16,-0.97,0.16,-0.37,0.6,0.74,30.24,96767.46
456691,-0.15,-0.97,0.15,-2.02,-2.17,2.25,30.24,96767.46
456728,-0.16,-0.96,0.15,-2.13,-4.67,3.09,30.24,96767.46
456765,-0.19,-0.97,0.14,-1.39,-4.47,2.81,30.24,96767.78
456802,-0.19,-0.97,0.13,-0.57,-0.23,1.79,30.25,96768.48
456842,-0.18,-0.97,0.13,0.76,1.51,0,30.25,96768.48
456880,-0.19,-0.97,0.13,1.92,2.61,-1.87,30.24,96766.95
456916,-0.17,-0.97,0.13,2.15,2.75,-2.91,30.24,96766.95
456952,-0.16,-0.97,0.15,2.3,3.96,-2.82,30.24,96766.95
456989,-0.16,-0.96,0.16,1.19,5.47,-2.12,30.24,96766.95
457027,-0.14,-0.97,0.16,0.61,-1.13,-0.48,30.24,96766.62
457064,-0.16,-0.97,0.15,-0.72,0.46,0.92,30.24,96768.11
457099,-0.15,-0.97,0.15,-1.53,-2.35,2.23,30.24,96768.11
457137,-0.16,-0.97,0.14,-1.72,-4.33,2.81,30.24,96766.11
457180,-0.18,-0.97,0.13,-1.97,-1.6,2.29,30.24,96766.11
457214,-0.19,-0.97,0.13,-0.68,-0.96,0.71,30.24,96766.25
457250,-0.19,-0.97,0.12,0.8,0.31,-0.82,30.24,96766.25
457288,-0.18,-0.97,0.14,1.55,1.42,-1.61,30.24,96766.42
457326,-0.17,-0.97,0.13,2.47,2.11,-3,30.23,96766.22
457363,-0.16,-0.96,0.14,1.67,6.29,-2.67,30.23,96766.22
457424,-0.14,-0.97,0.16,0.79,0.61,-0.3,30.24,96764.59
457463,-0.16,-0.96,0.19,-1.17,5.19,1.58,30.24,96766.58
457502,-0.16,-0.97,0.16,-1.55,-2.11,2.13,30.24,96766.58
457541,-0.17,-0.97,0.14,-1.91,3.79,2.29,30.23,96767.52
457579,-0.19,-0.97,0.13,-0.86,-7.71,1.45,30.23,96767.52
457618,-0.19,-0.97,0.11,-0.45,-5.21,0.14,30.23,96765.69
457655,-0.18,-0.97,0.12,-0.14,-1.28,-1.42,30.24,96766.75
457691,-0.18,-0.97,0.13,0.47,-0.4,-2.38,30.24,96766.75
457729,-0.17,-0.97,0.13,1.17,1.36,-2.53,30.23,96764.56
457766,-0.17,-0.97,0.15,1.81,0.31,-1.54,30.23,96764.56
457803,-0.16,-0.97,0.15,1.54,-0.04,-0.58,30.24,96765.75
457843,-0.15,-0.97,0.16,0.74,0.93,0.61,30.23,96765.39
457880,-0.17,-0.96,0.16,0.1,0.05,1.65,30.23,96765.39
457917,-0.17,-0.97,0.15,-1.12,-0.26,1.87,30.24,96764.59
457954,-0.18,-0.97,0.14,-1.33,-1.53,1.48,30.24,96764.59
457991,-0.18,-0.97,0.14,-1.24,-1.39,0.54,30.24,96764.75
458028,-0.18,-0.97,0.13,-0.78,0.09,-0.55,30.24,96764.75
458064,-0.18,-0.97,0.13,0.39,0.54,-1.61,30.23,96765.72
458101,-0.17,-0.97,0.13,0.88,1.54,-1.64,30.23,96765.72
458138,-0.16,-0.97,0.14,1.75,3.1,-1.28,30.23,96766.05
458179,-0.16,-0.97,0.14,1.49,2.41,-0.35,30.23,96765.89
458216,-0.16,-0.97,0.15,1.23,2.93,0.36,30.23,96765.89
458254,-0.16,-0.97,0.15,0.57,-0.4,0.95,30.23,96765.86
458291,-0.17,-0.97,0.15,0.13,-3.42,1.26,30.23,96765.86
458326,-0.18,-0.97,0.15,-1.03,1.21,1.04,30.23,96765.89
458362,-0.17,-0.97,0.15,-1.53,-3.14,0.57,30.23,96765.89
458400,-0.19,-0.97,0.13,-1.56,-0.93,-0.19,30.23,96765
458437,-0.18,-0.97,0.14,-0.86,1.53,-0.9,30.23,96766.52
458477,-0.17,-0.97,0.12,0.09,0.02,-1.08,30.23,96766.52
458515,-0.17,-0.97,0.13,1.02,3.24,-1.02,30.23,96763.96
458553,-0.17,-0.97,0.14,1.57,1.7,-0.88,30.23,96763.96
458589,-0.16,-0.97,0.14,1.81,1.24,0.05,30.23,96764.96
458624,-0.17,-0.97,0.14,1.14,2.69,0.51,30.23,96764.96
458662,-0.17,-0.97,0.15,0.67,-0.88,0.75,30.22,96763.9
458700,-0.18,-0.97,0.14,-0.48,4.02,0.75,30.23,96765.96
458736,-0.18,-0.97,0.15,-0.88,4.93,0.14,30.23,96765.96
458771,-0.18,-0.97,0.14,-1,2.15,-0.19,30.22,96764.07
458815,-0.18,-0.97,0.12,-0.52,1.97,-0.53,30.22,96764.07
458852,-0.17,-0.97,0.14,-0.25,2.14,-0.71,30.22,96765.42
458887,-0.17,-0.97,0.13,0.65,1.65,-0.85,30.22,96765.42
458925,-0.17,-0.97,0.14,1.06,0.57,-0.53,30.22,96765.42
458963,-0.17,-0.97,0.14,1.2,1.36,-0.06,30.22,96766.06
459000,-0.17,-0.97,0.15,1.14,0.79,0.36,30.22,96766.06
459035,-0.18,-0.97,0.14,0.42,0.79,0.32,30.22,96767.22
459072,-0.17,-0.97,0.15,-0.08,-7.92,0.4,30.22,96767.22
459111,-0.17,-0.97,0.14,0.22,-14.33,-0.33,30.21,96765.82
459151,-0.19,-0.97,0.14,-2.22,2.69,-0.39,30.21,96765.82
459188,-0.17,-0.97,0.14,-0.97,-8,-0.59,30.22,96768.21
459225,-0.17,-0.97,0.12,-0.89,-1.39,-0.29,30.21,96763.97
459261,-0.16,-0.97,0.13,-0.2,1.25,0.1,30.21,96763.97
459298,-0.17,-0.97,0.12,0.88,-0.84,0.45,30.21,96764.8
459335,-0.17,-0.97,0.13,1.67,0.61,0.54,30.21,96764.8
459372,-0.18,-0.96,0.15,1.86,-0.29,0.45,30.21,96764.46
459409,-0.17,-0.97,0.15,1.28,1.7,0.36,30.21,96764.46
459451,-0.17,-0.97,0.16,0.32,0.46,-0.15,30.21,96766.13
459487,-0.18,-0.97,0.15,-0.46,0.26,-0.97,30.21,96765.59
459523,-0.17,-0.97,0.16,-0.92,-0.99,-0.93,30.21,96765.59
459559,-0.16,-0.97,0.14,-1.24,-1.28,-0.85,30.21,96768.25
459597,-0.17,-0.97,0.14,-1.04,-1.04,-0.3,30.21,96768.25
459634,-0.16,-0.97,0.13,-0.14,-0.79,-0.03,30.21,96766.25
459670,-0.17,-0.96,0.13,0.35,-0.81,0.65,30.21,96766.25
459707,-0.17,-0.96,0.13,1.02,0.12,0.71,30.21,96767.58
459745,-0.17,-0.97,0.14,1.58,0.63,0.57,30.21,96765.42
459786,-0.18,-0.97,0.14,1.26,1.38,0.02,30.21,96765.42
459821,-0.18,-0.97,0.15,0.94,1.05,-0.29,30.2,96763.21
459859,-0.18,-0.97,0.15,0.18,0.15,-0.74,30.2,96763.21
459897,-0.17,-0.97,0.15,-0.52,-0.49,-0.9,30.2,96764.89
459933,-0.16,-0.97,0.14,-0.74,-0.61,-0.87,30.2,96764.89
459968,-0.16,-0.97,0.14,-0.94,-0.95,-0.44,30.21,96765.76
460007,-0.16,-0.97,0.14,-0.72,-1.16,0.13,30.2,96766.22
460045,-0.17,-0.96,0.12,-0.11,-0.87,0.6,30.2,96766.22
460082,-0.17,-0.96,0.13,0.35,-0.49,0.97,30.2,96764.24
460140,-0.18,-0.97,0.13,1.22,0.58,0.48,30.2,96764.89
460179,-0.18,-0.97,0.15,1.45,0.92,-0.39,30.2,96764.89
460217,-0.18,-0.97,0.15,0.93,0.55,-0.7,30.2,96766.19
460253,-0.17,-0.97,0.15,0.51,0.83,-1.03,30.2,96766.19
460291,-0.17,-0.97,0.15,0.03,0.06,-1.08,30.2,96764.39
460329,-0.16,-0.97,0.15,-0.83,-0.11,-0.9,30.2,96764.39
460367,-0.16,-0.97,0.15,-0.75,-1.28,-0.38,30.2,96765.53
460403,-0.16,-0.97,0.14,-0.51,-1.02,0.26,30.2,96764.74
460444,-0.16,-0.96,0.13,-0.17,-0.99,1,30.2,96764.74
460482,-0.17,-0.97,0.14,0.22,-0.64,1.19,30.2,96765.03
460519,-0.18,-0.97,0.13,0.62,-0.14,0.84,30.2,96765.03
460556,-0.18,-0.96,0.13,0.97,0.41,0.16,30.2,96766.03
460592,-0.18,-0.96,0.13,1.2,0.84,-0.39,30.2,96766.03
460630,-0.18,-0.97,0.15,0.53,1.1,-0.99,30.2,96768.69
460665,-0.17,-0.97,0.15,0.33,0.08,-1.31,30.2,96766.36
460702,-0.16,-0.97,0.15,-0.16,0.35,-1.14,30.2,96766.36
460739,-0.16,-0.96,0.15,-0.22,-0.27,-0.77,30.2,96764.66
460780,-0.16,-0.97,0.14,-0.45,-0.2,0.14,30.2,96764.66
460818,-0.16,-0.97,0.14,-0.3,-0.75,0.66,30.2,96766.16
460855,-0.17,-0.97,0.14,0.19,-0.41,0.92,30.2,96766.16
460892,-0.17,-0.97,0.14,0.3,-0.24,1.07,30.19,96765.46
460957,-0.18,-0.97,0.14,0.59,0.17,-0.03,30.2,96765.69
460994,-0.18,-0.97,0.14,0.41,0.38,-0.71,30.2,96764.19
461030,-0.17,-0.96,0.14,0.48,0.29,-1.02,30.2,96764.19
461068,-0.17,-0.97,0.14,-0.07,0.58,-1.05,30.19,96763.47
461110,-0.16,-0.96,0.14,0.03,-0.41,-0.64,30.19,96763.47
461147,-0.16,-0.97,0.14,0.03,-0.18,0,30.19,96765.13
461184,-0.16,-0.97,0.14,0.1,-0.32,0.87,30.19,96765.13
461219,-0.17,-0.97,0.14,0.33,-1.08,1.23,30.19,96766.1
461257,-0.18,-0.97,0.14,0.42,-0.08,1.03,30.19,96764.92
461293,-0.18,-0.97,0.14,0.24,0.21,0.37,30.19,96764.92
461330,-0.18,-0.97,0.15,0.24,0.32,-0.26,30.19,96763.24
461367,-0.17,-0.97,0.14,0.06,-0.15,-0.71,30.19,96763.24
461404,-0.17,-0.97,0.15,0.25,0.46,-1.31,30.19,96765.77
461447,-0.16,-0.97,0.15,0.07,0.29,-1.35,30.19,96764.77
461484,-0.16,-0.97,0.14,-0.01,0.7,-0.47,30.19,96764.77
461519,-0.16,-0.97,0.14,-0.1,-0.24,-0.16,30.19,96764.57
461556,-0.16,-0.97,0.14,0.01,-0.62,0.92,30.19,96764.57
461595,-0.17,-0.97,0.13,0.28,-0.33,1.07,30.19,96763.07
461632,-0.17,-0.97,0.13,0.22,-0.32,0.94,30.19,96763.07
461667,-0.18,-0.97,0.14,0.24,0.14,0.75,30.19,96766.1
461704,-0.18,-0.97,0.15,-0.02,-0.18,-0.03,30.19,96766.1
461743,-0.18,-0.97,0.14,0.16,-0.08,-0.47,30.19,96763.07
461783,-0.17,-0.97,0.13,0.06,0.31,-1.03,30.19,96765.53
461818,-0.17,-0.97,0.14,0.27,0.05,-1.29,30.19,96765.53
461856,-0.16,-0.97,0.14,0.41,0.44,-1.29,30.18,96763.37
461894,-0.16,-0.97,0.14,0.59,0.38,-0.09,30.18,96763.37
461930,-0.16,-0.97,0.14,0.57,0.37,0.22,30.19,96763.88
461966,-0.17,-0.96,0.14,0.09,-0.26,0.97,30.19,96763.88
462004,-0.17,-0.97,0.16,0.1,-0.58,1.18,30.18,96763.03
462042,-0.17,-0.97,0.14,-0.3,-0.26,0.77,30.18,96763
462081,-0.18,-0.97,0.14,-0.13,-0.41,0.37,30.18,96763
462118,-0.18,-0.97,0.14,0.12,-0.4,-0.29,30.19,96763.71
462156,-0.17,-0.97,0.13,-0.07,0.25,-0.64,30.19,96763.71
462193,-0.17,-0.97,0.14,0.36,0.52,-1.28,30.18,96764.16
462228,-0.17,-0.97,0.14,0.73,0.31,-1.11,30.18,96764.16
462266,-0.16,-0.97,0.14,0.68,0.9,-0.62,30.18,96762.84
462304,-0.16,-0.97,0.14,0.61,-0.04,0.14,30.18,96765.16
462341,-0.17,-0.97,0.14,0.74,0.73,0.58,30.18,96765.16
462375,-0.17,-0.97,0.15,0.56,0.26,0.94,30.18,96764.36
462417,-0.17,-0.97,0.15,-0.08,-0.32,0.84,30.18,96764.36
462454,-0.17,-0.97,0.15,-0.25,-0.41,0.32,30.18,96765.16
462491,-0.18,-0.97,0.14,-0.6,-1.01,-0.3,30.18,96765.16
462528,-0.18,-0.97,0.14,-0.62,-0.41,-0.85,30.18,96766.16
462565,-0.17,-0.97,0.14,-0.28,-0.08,-0.76,30.18,96764.5
462602,-0.17,-0.96,0.14,0.22,0.47,-0.74,30.18,96764.5
462639,-0.17,-0.97,0.14,0.67,0.12,-0.73,30.18,96763.17
462675,-0.17,-0.96,0.14,1.03,0.47,-0.26,30.18,96763.17
462712,-0.17,-0.97,0.14,1.08,0.69,0.29,30.18,96765.46
462766,-0.17,-0.97,0.15,0.67,0.5,0.54,30.18,96765.16
462803,-0.17,-0.97,0.15,0.18,-0.01,0.61,30.18,96765.16
462841,-0.17,-0.97,0.15,-0.48,-0.43,0.2,30.18,96764.83
462878,-0.17,-0.97,0.14,-1.04,-0.06,-0.55,30.18,96764.83
462914,-0.18,-0.97,0.15,-0.89,0.46,-0.88,30.18,96765.46
462952,-0.19,-0.96,0.14,-1.38,4.55,-2.41,30.18,96765.46
462990,-0.18,-0.97,0.15,-0.31,2.47,-1.93,30.18,96765.3
463027,-0.2,-0.96,0.15,-0.01,0.89,-2,30.18,96765.82
463068,-0.15,-0.96,0.13,0.8,2.46,-1.4,30.18,96765.82
463105,-0.19,-0.96,0.14,1.31,1.15,-0.01,30.17,96766.1
463141,-0.18,-0.96,0.14,1.17,2.43,0.08,30.17,96766.1
463178,-0.16,-0.96,0.14,1.03,2.02,1.33,30.18,96764.63
463215,-0.21,-0.97,0.15,0.59,-0.03,1.04,30.18,96764.63
463252,-0.16,-0.97,0.14,0.12,-0.85,0.32,30.17,96765.76
463289,-0.19,-0.97,0.15,-0.34,-0.5,0.07,30.18,96767.13
463326,-0.19,-0.97,0.15,-1,-0.06,-1.13,30.18,96767.13
463363,-0.16,-0.97,0.13,-0.86,-0.93,-1.19,30.17,96766.26
463403,-0.2,-0.96,0.14,-0.8,-1.14,-1.08,30.17,96766.26
463440,-0.15,-0.97,0.12,0.04,-0.46,-0.96,30.18,96767.96
463478,-0.17,-0.96,0.12,0.76,0.29,0.2,30.18,96766.16
463515,-0.18,-0.97,0.14,1.25,0.89,0.42,30.18,96766.16
463550,-0.15,-0.96,0.14,1.28,1.3,0.78,30.18,96765.13
463587,-0.2,-0.97,0.15,1.08,0.76,1.12,30.18,96765.13
463626,-0.17,-0.97,0.14,0.71,0.72,0.19,30.17,96763.77
463662,-0.18,-0.97,0.15,0.13,0.57,0.6,30.17,96763.77
463702,-0.19,-0.96,0.16,-0.36,-0.04,-0.59,30.18,96764
463739,-0.15,-0.97,0.13,-0.75,-0.59,-1.17,30.18,96765
463777,-0.19,-0.96,0.15,-0.72,-0.99,-0.62,30.17,96764.27
463813,-0.16,-0.96,0.13,-0.65,-1.17,-1.03,30.18,96764
463849,-0.16,-0.97,0.13,0.38,-0.06,-0.29,30.18,96764
463887,-0.18,-0.96,0.14,0.39,1.04,-0.1,30.18,96765
463925,-0.15,-0.97,0.12,0.82,0.55,0.54,30.18,96765
463961,-0.18,-0.97,0.15,1.12,0.32,0.8,30.18,96767.82
463995,-0.17,-0.97,0.14,0.86,0.87,0.43,30.18,96767.82
464039,-0.17,-0.97,0.14,0.22,0.44,0.4,30.18,96767.13
464076,-0.19,-0.97,0.15,-0.42,0.2,-0.23,30.17,96764.6
464112,-0.16,-0.97,0.14,-0.59,-0.46,-0.87,30.17,96764.6
464150,-0.18,-0.97,0.14,-0.46,-0.64,-0.58,30.18,96765.63
464188,-0.18,-0.97,0.13,-0.45,-0.3,-0.71,30.18,96765.63
464225,-0.15,-0.97,0.12,-0.04,-0.24,-0.09,30.17,96764.07
464262,-0.18,-0.97,0.14,0.65,0.23,0.6,30.17,96764.07
464316,-0.18,-0.97,0.14,0.9,0.46,0.8,30.17,96765.42
464355,-0.15,-0.96,0.14,0.86,0.93,0.66,30.17,96765.6
464427,-0.17,-0.97,0.15,0.35,0.41,-0.09,30.17,96765.1
464462,-0.17,-0.97,0.15,0.25,0.37,-0.29,30.17,96765.92
464500,-0.18,-0.96,0.15,-0.36,-0.09,-0.96,30.17,96765.92
464539,-0.16,-0.97,0.13,-0.6,-0.46,-1.23,30.17,96766.56
464577,-0.17,-0.97,0.14,-0.33,-0.43,-0.81,30.17,96766.56
464613,-0.16,-0.97,0.13,-0.34,-0.06,-0.35,30.17,96765.5
464650,-0.16,-0.97,0.13,-0.25,0.46,0.07,30.17,96765.5
464688,-0.18,-1.02,0.15,4.82,0.49,1.23,30.17,96765.39
464728,-0.15,-0.93,0.14,0.57,-0.82,0.2,30.17,96765.83
464764,-0.15,-1.11,0.08,-0.19,0.6,0.26,30.17,96765.83
464801,-0.19,-0.98,0.13,0.47,-0.9,-1.69,30.17,96764.03
464838,-0.16,-1.01,0.19,0.01,2.35,-3.16,30.17,96764.03
464875,-0.18,-1.06,0.17,-0.66,12.92,-6.09,30.17,96765.17
464912,-0.05,-2.15,0.13,-0.63,52.9,-5.25,30.17,96765.17
464949,-0.03,-3.82,0.16,-15.97,83.92,-6.15,30.17,96766.72
464986,0.08,-6.28,0.19,-9.73,91.24,-2.62,30.17,96762.28
465022,0.1,-8.66,0.37,18.3,94.28,6.69,30.16,96762.28
465064,0.39,-5.86,0.02,16.56,23.85,10.63,30.17,96758.89
465100,-0.47,-4.53,0.23,17.86,32.4,23.36,30.17,96758.89
465137,0,-4,0.1,18.91,9.68,44.1,30.17,96751.05
465175,-0.02,-3.82,-0.01,9.41,-4.81,58.55,30.17,96751.05
465212,0,-3.74,0.04,12.67,-19.28,74.9,30.17,96746.27
465248,0.03,-3.47,0.02,26.24,-25.79,88.86,30.17,96737.92
465285,0.05,-3.43,-0.01,20.5,-39.27,95.99,30.17,96737.92
465323,0.13,-3.54,-0.02,23.08,-44.37,101.09,30.17,96723.14
465363,0.19,-3.32,-0.04,25.37,-56.06,102.34,30.17,96723.14
465399,0.29,-3.44,-0.07,27.52,-68.9,97.74,30.17,96705.05
465438,0.38,-3.29,-0.13,28.86,-80.58,85.82,30.17,96705.05
465476,0.49,-3.21,-0.11,18.03,-94.2,65.23,30.17,96685.84
465512,0.5,-3.27,-0.17,9.31,-105.11,42.72,30.17,96665.52
465548,0.47,-3.19,-0.17,-1.17,-115.94,21.23,30.17,96665.52
465587,0.39,-3.15,-0.17,-4.63,-111.45,6.68,30.17,96655.78
465625,0.32,-3.06,-0.11,-20.91,-110.56,-4.84,30.17,96655.78
465664,0.29,-3.15,-0.08,-20.28,-111.85,-7.87,30.17,96648.11
465701,0.23,-3.13,0.01,-22.95,-118.81,-8.99,30.17,96648.11
465739,0.18,-3.11,0.11,-19.87,-135.75,-4.53,30.17,96641.93
465776,0.18,-3.2,0.23,-11.91,-160.12,-0.44,30.17,96629.47
465812,0.18,-3.42,0.2,14.16,-178.84,7.79,30.17,96629.47
465849,0.21,-3.35,0.07,22.16,-194.98,9.68,30.16,96614.5
465887,0.29,-3.27,0.03,26.35,-208.5,8.45,30.16,96614.5
465924,0.38,-3.2,-0.01,29.72,-218.96,1.48,30.17,96597.96
465959,0.22,-3.16,-0.01,23.54,-219.74,-7.64,30.17,96597.96
466001,0.19,-3.29,-0.07,18.15,-217.62,-4.59,30.16,96583.25
466038,0.13,-3.24,-0.04,12.01,-211.71,2.66,30.16,96571.25
466075,0.33,-3.66,-0.04,13.98,-199.95,11.42,30.16,96571.25
466113,0.41,-3.44,-0.23,1.9,-191.48,5.3,30.16,96542.85
466149,0.46,-3.25,-0.05,-16.17,-185.94,-7.74,30.16,96542.85
466187,0.46,-3.39,-0.01,-11.78,-192.78,-18.73,30.15,96522.6
466224,0.3,-3.31,-0.01,-6.52,-195.13,-17.17,30.15,96522.6
466260,0.32,-3.23,0.04,-7.96,-209.01,-14.91,30.15,96509.41
466301,0.21,-3.39,0.16,-0.2,-227.3,-5.45,30.14,96494.24
466338,0.18,-3.6,0.09,9.28,-250.23,3.87,30.14,96494.24
466376,0.36,-3.42,0.19,19.38,-267.25,5.03,30.14,96473.28
466413,0.42,-3.34,-0.09,24.04,-264.49,-1.77,30.14,96473.28
466449,0.35,-3.26,-0.34,8.62,-266.3,-6.88,30.13,96451.8
466486,0.33,-3.44,-0.43,-20.49,-238.15,2.66,30.13,96451.8
466524,0.32,-2.85,-0.08,-36.26,-243.66,7.41,30.13,96429.78
466561,0.44,-1.89,0.15,-35.1,-263.57,9.32,30.12,96414.17
466600,0.85,-0.03,0.03,-20.68,-288.73,-9.05,30.12,96414.17
466639,0.27,0.44,0.29,-22.19,-318.4,-35.31,30.12,96396.85
466678,0.12,0.48,0.22,-17.55,-328.78,-32.93,30.12,96396.85
466714,0.07,0.48,0.39,-6.84,-337.88,-21.68,30.12,96392.85
466749,-0.07,0.48,0.3,9.09,-347.56,-6.3,30.12,96392.85
466788,-0.1,0.49,0.21,23.43,-354.18,6.4,30.11,96376.02
466826,-0.18,0.47,0.06,23.26,-345.83,17.18,30.1,96362.94
466862,-0.06,0.46,-0.22,18.27,-325.69,23.97,30.1,96362.94
466903,0.12,0.45,-0.1,3.23,-301.37,27.73,30.09,96341.96
466940,0.22,0.45,-0.05,-4.95,-293.02,18.74,30.09,96341.96
466977,0.22,0.46,-0.03,-8.31,-284.96,9.67,30.08,96315.97
467013,0.02,0.45,0.15,-7.81,-282.12,9.96,30.08,96315.97
467050,0.04,0.45,0.09,0.15,-282.49,21.01,30.07,96301.1
467088,0.04,0.45,0.08,7.26,-281.51,24.55,30.07,96286.75
467125,0.21,0.45,0.1,14.8,-284.27,18.51,30.07,96286.75
467160,0.18,0.45,0.08,19.03,-285.48,7.77,30.06,96264.39
467197,0.3,0.45,-0.08,15.87,-285.46,-5.03,30.06,96264.39
467239,0.11,0.44,-0.05,6.71,-282.21,-14.71,30.05,96252.4
467275,-0.02,0.4,-0.06,0.51,-278.58,-6.32,30.05,96252.4
467313,-0.04,0.41,0.15,1.74,-278.06,0.81,30.05,96242.71
467349,0.1,0.42,0.2,11.43,-284.88,7.56,30.04,96228.24
467386,0.18,0.4,0.22,22.94,-295.34,1.04,30.04,96228.24
467423,0.28,0.41,0.17,25.84,-303.19,-13.17,30.03,96207.06
467461,0.09,0.38,0.02,26.41,-302.11,-25.35,30.03,96207.06
467496,-0.03,0.38,-0.03,20.93,-298.33,-22.41,30.03,96198.53
467537,-0.08,0.36,-0.03,7.81,-284.32,-13.43,30.03,96198.53
467576,-0.11,0.38,-0.14,-2.6,-266.47,5.48,30.02,96189.88
467612,0.03,0.37,-0.03,-9.09,-257.95,10.84,30.02,96173.44
467648,0.09,0.37,-0.05,-10.23,-256,14.28,30.02,96173.44
467685,0.23,0.36,-0.07,-14.23,-252.33,10.29,30.01,96157.41
467724,0.26,0.35,-0.04,-17.56,-248.62,-2.03,30.01,96157.41
467760,0.19,0.34,0,-20.75,-249.22,-10.03,30.01,96139.61
467798,0.13,0.34,0.08,-19.07,-252.46,-12.61,30.01,96139.61
467870,0.09,0.32,-0.02,-17.87,-251.8,-8.59,30,96126.21
467908,0.11,0.32,0.08,-17.23,-251.16,-4.84,30,96126.21
467944,0.16,0.33,0.11,-14.22,-253.22,-4.65,29.99,96111.71
467980,0.12,0.33,0.16,-8.22,-258.81,-7.74,29.99,96111.71
468019,0.12,0.32,0.06,-6.07,-262.69,-7.72,29.99,96102.08
468058,-0.02,0.33,0.07,-5.27,-259.56,-4.29,29.99,96102.08
468092,-0.06,0.31,0.06,-0.3,-266.99,3.67,29.99,96098.24
468128,-0.06,0.31,0.03,-0.01,-263.74,13.41,29.99,96098.24
468172,0.02,0.31,0.09,5.37,-260.98,23.06,29.98,96088.41
468208,0.06,0.3,0.03,11.05,-258.62,20.58,29.98,96076.6
468244,0,0.3,-0.08,9.98,-248.78,21.23,29.98,96076.6
468281,-0.03,0.28,-0.22,5.14,-233.86,20.65,29.97,96070.03
468320,-0.06,0.28,-0.04,-4.28,-218.75,31.01,29.97,96070.03
468356,0.12,0.29,0,-2.04,-227.33,33.38,29.97,96064.72
468391,0.19,0.29,0,0.79,-221.83,24.32,29.97,96050.28
468428,0.18,0.29,0.03,3.25,-218.08,15.88,29.96,96048.5
468467,0.2,0.28,0.03,3.55,-222.03,4.86,29.96,96042.06
468507,0.1,0.28,0.12,5.8,-228.96,-2.56,29.96,96042.06
468546,0.08,0.28,0.12,10.86,-235.95,-6.52,29.95,96039.64
468599,0,0.28,0.12,18.19,-243.66,-6.48,29.95,96036.32
468637,-0.02,0.27,0.08,23.6,-248.29,-4.55,29.95,96036.32
468674,-0.04,0.26,0.1,27.37,-250.17,-2.73,29.94,96033.39
468712,-0.03,0.25,0.1,31,-252.79,-1.14,29.94,96033.39
468749,-0.02,0.25,0.04,33.32,-249.83,0.11,29.94,96028.08
468787,0.02,0.25,0.1,33.16,-248.38,0.42,29.94,96025.39
468829,0.05,0.26,-0.01,31.54,-245.69,-0.85,29.94,96025.39
468866,0.04,0.25,-0.01,25.19,-240.29,-3.84,29.94,96021.21
468901,0.02,0.25,-0.06,17.58,-228.78,-4.64,29.94,96021.21
468938,0.08,0.25,-0.17,8.57,-217.56,-7.23,29.93,96014.88
468976,0.1,0.25,-0.03,-0.65,-213.28,-10.61,29.93,96014.88
469013,0.04,0.24,-0.07,-9.96,-206.26,-11.8,29.93,96007.87
469049,0.11,0.24,0,-13.82,-205.17,-9.72,29.93,96010.19
469086,0.12,0.23,0.06,-15.96,-206.17,-11.26,29.93,96010.19
469130,0.13,0.25,0.07,-11.73,-212.98,-10.81,29.92,96010.97
469166,0.1,0.24,0.05,-11.35,-215.89,-13.93,29.92,96010.97
469201,0.1,0.24,0.05,-10.81,-216.53,-15.06,29.92,96006.92
469240,0.09,0.23,0.05,-11.44,-218.14,-16.18,29.92,96006.92
469279,0.08,0.23,0.05,-11.21,-221.24,-16.5,29.92,96007.59
469315,0.07,0.24,0.06,-10.74,-223.8,-16.52,29.92,96007.1
469350,0.04,0.23,0.04,-10.66,-225.22,-15.98,29.92,96007.1
469389,0.04,0.24,0.01,-10.4,-224.93,-11.06,29.92,96010.91
469431,0,0.24,0,-10.48,-222.23,-4.44,29.92,96010.91
469467,0.01,0.23,0.02,-10.97,-221.14,1.07,29.91,96012.51
469504,0.03,0.23,0.01,-11.09,-217.91,4.02,29.91,96012.51
469541,0,0.23,-0.02,-11.35,-215.36,6.66,29.91,96011.67
469578,0.06,0.23,-0.08,-13.38,-211.48,9.87,29.9,96016.3
469613,0.06,0.23,-0.02,-15.09,-210.46,12.45,29.9,96016.3
469651,0.04,0.23,-0.03,-15.04,-208.03,13.55,29.9,96018.26
469689,0.08,0.23,0.01,-15.96,-210.24,15.33,29.9,96018.26
469726,0.02,0.23,0,-14.46,-211.24,15.74,29.9,96018.76
469767,0.1,0.24,0.04,-11.7,-212.64,16.55,29.9,96018.76
469804,0.04,0.22,0.07,-7.88,-213.8,15.65,29.9,96022.85
469840,0.06,0.24,0.03,-3.15,-215.13,15.67,29.9,96031.14
469876,0.02,0.23,0.06,0.83,-217.13,15.47,29.9,96031.14
469914,0.03,0.22,0.02,4.67,-216.81,16.25,29.89,96030.12
469950,0.03,0.22,0.05,9.29,-218.17,15.41,29.89,96030.12
469988,0.04,0.23,0.05,12.3,-219.89,14.65,29.89,96033.91
470024,0.01,0.23,0.03,14.82,-220.99,14.34,29.89,96033.91
470066,0.04,0.23,0,16.07,-218.69,12.29,29.89,96040.39
470102,0.03,0.23,0.01,16.36,-217.5,10.68,29.89,96045.53
470138,0.03,0.22,-0.01,15.35,-214.27,10.78,29.89,96045.53
470177,-0.05,0.22,0.03,15.77,-214.69,10.71,29.89,96053
470213,0.01,0.23,0.04,15.83,-211.6,12.68,29.89,96053
470249,0.03,0.22,0.01,17.32,-210.78,11.84,29.88,96057.39
470286,0.04,0.24,0.01,18.48,-212.09,10.11,29.88,96057.39
470325,0.08,0.23,0.04,18.24,-213.08,6.95,29.88,96065.35
470365,0.12,0.23,0,17.19,-210.61,-1.05,29.88,96068.14
470401,0.04,0.23,0.03,13.57,-212.29,-6.21,29.88,96068.14
470439,0.11,0.24,0.05,13.05,-215.69,-9.46,29.88,96075.12
470478,0.05,0.24,0.03,13.63,-218.96,-12.44,29.88,96075.12
470514,0.05,0.23,0.02,13.02,-220.08,-13.31,29.88,96086.38
470549,0.06,0.23,0.06,11.78,-219.53,-14.07,29.88,96086.38
470588,0.12,0.24,0.03,10.88,-219.8,-17.66,29.87,96095.64
470626,0.05,0.24,0.04,9.31,-220.3,-20.1,29.87,96106.29
470662,0.02,0.24,0.05,6.36,-220.03,-18.94,29.87,96106.29
470702,0.02,0.24,0.06,5.19,-218.24,-15.63,29.87,96113.36
470740,0.04,0.23,0.05,3.9,-218.76,-12.96,29.87,96113.36
470776,0.04,0.24,0,3.64,-216.9,-12.27,29.86,96122.63
470812,0.07,0.24,0.02,1.58,-217.46,-12.99,29.86,96122.63
470849,0.09,0.24,0.01,1.61,-217.31,-13.28,29.86,96132.75
470888,0.07,0.24,-0.04,-0.43,-218.4,-14.27,29.86,96145.21
470925,0.05,0.23,-0.03,-4.34,-218.29,-12.99,29.86,96145.21
470961,0.06,0.24,-0.03,-9.18,-214.96,-9.52,29.86,96156.57
471002,0.06,0.24,0.02,-12.13,-212.98,-6.01,29.86,96156.57
471040,0.08,0.25,0.01,-10.88,-212.92,-4.79,29.86,96167.02
471076,0.1,0.25,0.03,-9.88,-216.01,-4.64,29.86,96167.02
471113,0.01,0.24,0.03,-8.36,-218.41,-4.26,29.85,96176.12
471150,0.06,0.25,0.01,-10.3,-213.91,-2,29.85,96190.22
471188,0.06,0.26,0.02,-10.14,-212.14,0.95,29.85,96190.22
471258,0.04,0.25,0,-11.06,-209.91,5.39,29.85,96199.3
471293,0.01,0.25,0,-13,-208.09,7.82,29.85,96213.57
471334,0.02,0.26,0.02,-9.32,-208.82,11.45,29.85,96213.57
471373,0.03,0.28,0.05,-7.14,-210.84,14.94,29.84,96226.02
471410,-0.16,0.24,0.08,-5.52,-213.19,11.07,29.84,96240.12
471446,0.14,0.43,0.09,-4.3,-214.52,14.2,29.84,96240.12
471483,0.15,0.38,-0.02,-1.15,-218.62,13.27,29.84,96252.88
471521,-0.02,-0.47,0.21,-1.04,-209.57,0.89,29.84,96252.88
471558,-0.34,0.13,0.19,4.35,-197.74,-7.71,29.84,96202.69
471593,0.01,-0.83,0.26,-16.63,-182.67,-1.43,29.84,96202.69
471630,-0.41,0.87,0.3,-21.97,-42.56,7.1,29.83,96334.94
471672,-0.16,0.71,0.35,-28.4,241.65,-0.06,29.82,96378.83
471709,1.75,1.92,3.21,-361.36,-224.01,299.23,29.82,96378.83
471747,3.19,2.43,2.38,-468.62,-498.04,499.18,29.82,96330.16
471784,5.22,1.5,1.85,-307,187.65,499.18,29.82,96330.16
471822,3.08,-0.42,3.16,-498.26,502.49,499.18,29.82,95956.07
471858,0.5,-0.59,3.16,-498.26,502.49,147.12,29.82,95956.07
471896,2.03,-1.17,-0.61,-498.26,296.28,37.96,29.81,96165.6
471932,-0.26,-0.64,0.36,-382.59,232.83,-24.04,29.8,96324.47
471973,-0.29,-3.43,-1.09,-323.06,250.83,-26.61,29.8,96324.47
472011,0.18,-1.5,-1.41,-81.61,490.38,-381.69,29.8,96374.57
472048,1.32,-1.7,-0.68,27.99,371.62,-330.06,29.8,96374.57
472084,2.66,-1.11,-0.13,38.86,363.33,-210.01,29.79,96270.74
472122,2.42,-0.52,0.05,-38.88,244.52,-217.13,29.79,96270.74
472160,3.14,-1.15,0.39,-111.24,48.11,-222.68,29.78,96244.29
472197,2.79,-0.7,0.3,-134.16,103.34,-176.55,29.78,96240.78
472232,2.91,-0.59,0.53,-113.49,262.18,-81.08,29.78,96240.78
472274,2.71,-0.63,0.57,-102.63,327.71,-8.53,29.77,96272.55
472312,2.03,-0.35,0.57,-96.39,502.49,15.29,29.77,96272.55
472348,1.55,-0.51,1.3,-123.27,502.49,-2.55,29.77,96297.41
472384,0.95,-0.47,1.55,-98.78,502.49,-12.27,29.77,96297.41
472423,0.07,-0.48,1.93,-60.13,406.98,-24.77,29.76,96357.1
472461,0.14,-0.62,1.59,-14.71,215.08,3.41,29.76,96364.72
472497,0.22,-0.42,1.42,7.55,-9.72,40.14,29.76,96364.72
472531,0.05,-0.53,1.41,61.93,-187.62,14.72,29.76,96370.36
472574,0.45,-0.5,1.53,46.79,-495.39,-22.16,29.76,96370.36
472611,0.96,-0.59,1.03,21.25,-498.04,-37.08,29.76,96402.39
472647,1.38,-0.52,0.49,-54.59,-498.04,-37.32,29.76,96402.39
472685,1.56,-0.48,-0.08,-62.8,-498.04,-35.83,29.75,96420.42
472723,1.27,-0.43,-0.51,-14.78,-388.75,-55.58,29.75,96412.92
472760,1.06,-0.47,-0.95,6.8,-352.62,-62.23,29.75,96412.92
472797,0.96,-0.45,-1.19,-16.39,-293.22,-17.75,29.75,96451.92
472851,0.1,-0.23,-1.57,-55.61,-238.75,51.81,29.74,96475.13
472905,0.11,-0.36,-1.71,-58.84,-54.73,78,29.74,96475.13
472940,0.19,-0.28,-1.64,-61.82,125.41,63.82,29.74,96468.46
472981,0.28,-0.22,-1.54,-90.31,285.45,39.07,29.74,96474.24
473020,0.25,-0.19,-1.5,-104.34,493.08,5.97,29.74,96474.24
473056,0.8,-0.16,-1.08,-88.25,502.49,-23.89,29.74,96497.77
473092,1.37,-0.09,-0.4,-57.61,502.49,-56.53,29.74,96497.77
473131,1.59,-0.15,0.01,57.64,502.49,-57.51,29.73,96492.92
473168,1.58,-0.31,0.39,75.8,453.86,4.17,29.73,96492.92
473207,1.02,-0.22,0.94,13.84,502.49,42.32,29.74,96505.07
473244,0.45,-0.15,1.16,-12.28,502.49,57.07,29.74,96536.94
473283,0.14,-0.23,1.33,-6.3,280.75,58,29.74,96536.94
473319,0.05,-0.2,1.36,7.81,59.74,49.88,29.73,96542.21
473355,0.04,-0.27,1.31,28.48,-141.22,36.6,29.73,96542.21
473392,0.18,-0.24,1.31,29.29,-351.69,25.26,29.73,96546.39
473430,0.64,-0.13,1.01,35.55,-498.04,33.42,29.73,96546.39
473466,1.05,-0.1,0.58,24.56,-498.04,22.6,29.73,96566.64
473507,1.25,-0.11,0.23,3.92,-448.15,15.39,29.73,96563.82
473544,1.26,-0.09,0.15,20.19,-342.14,19.13,29.73,96563.82
473581,1.16,-0.12,-0.17,51.09,-325.07,30.31,29.73,96581.71
473618,0.94,-0.15,-0.51,102.32,-375.95,34.65,29.73,96581.71
473656,0.68,-0.23,-0.78,132.19,-404.58,17.48,29.73,96595.32
473692,0.39,-0.25,-0.99,127.61,-362.3,2.11,29.73,96595.32
473730,0.1,-0.3,-1.03,87.67,-292.46,-4.93,29.73,96622.67
473765,0,-0.33,-1.07,54.16,-189.01,-6.09,29.73,96624.13
473803,-0.05,-0.35,-1,28.19,-109.14,-2.06,29.73,96624.13
473843,-0.04,-0.32,-0.97,-10.45,-22.15,-11.98,29.73,96625.82
473881,0.02,-0.35,-0.97,-28.86,46.64,-9.95,29.73,96625.82
473919,0.08,-0.31,-0.92,-35.46,89.24,-2.99,29.73,96643.55
473956,-0.02,-0.29,-0.91,-37.07,154.28,-2.45,29.73,96643.55
473991,0.09,-0.29,-0.98,-48.98,223.38,-1.05,29.73,96652.18
474029,0.19,-0.26,-1,-65.23,301.7,-3.35,29.72,96664.77
474066,0.24,-0.26,-1.03,-76.55,303.48,-12.88,29.72,96664.77
474103,-5.97,-0.81,3.61,-26.78,-498.04,49.74,29.72,96681.69
474142,-0.87,-0.32,-1.08,-24.78,-498.04,4.54,29.72,96681.69
474182,-0.45,-0.55,0.2,-6.39,-474.14,-28.21,29.72,96720.13
474220,-1.21,-0.13,0.04,73.51,78.31,-42.58,29.72,96720.13
474256,-0.39,-0.22,-0.31,68.18,227.99,9.09,29.71,96723.08
474292,-0.53,-0.34,-0.57,18.53,273.76,55.9,29.71,96720.89
474330,-1.06,0.18,-1.14,11.7,122.18,14.4,29.71,96720.89
474368,5.34,2.35,3.99,-26.78,48.41,93.73,29.71,96720.89
474403,-0.17,0.02,-1.02,12.33,173.53,14.71,29.71,96720.89
474444,-0.16,-0.08,-1.14,10.93,156.79,11.71,29.71,96720.69
474482,0.04,-0.01,-1.06,5.67,101.36,7.93,29.71,96720.69
474520,0.12,-0.06,-1.14,4.44,0.54,3.38,29.71,96723.75
474589,-0.19,-0.04,-1.02,0.47,-1.33,0.4,29.72,96720.86
474625,-0.07,-0.04,-1.04,0.56,-0.73,0.23,29.72,96721.52
474663,-0.11,-0.05,-1.02,0.48,0.78,0.36,29.72,96721.52
474701,-0.11,-0.06,-1.02,0.15,-0.08,-0.29,29.73,96721.46
474737,-0.11,-0.05,-1.02,0.07,-0.23,0.08,29.73,96721.46
474778,-0.11,-0.05,-1.02,0.13,-0.29,0.08,29.73,96719.33
474816,-0.11,-0.05,-1.01,0.16,0.17,0.2,29.74,96722.19
474853,-0.11,-0.06,-1.02,0.03,0.18,-0.03,29.74,96722.19
474888,-0.11,-0.05,-1.01,0.13,0.21,-0.13,29.74,96723.25
474925,-0.11,-0.05,-1.02,0.01,-0.01,-0.01,29.74,96723.25
474962,-0.11,-0.05,-1.02,0.32,0.37,0.08,29.75,96720.42
474999,-0.11,-0.05,-1.01,0.04,0.02,-0.15,29.75,96720.42
475035,-0.11,-0.05,-1.01,-0.05,0.05,-0.13,29.76,96720.72
475072,-0.11,-0.05,-1.01,0.28,0.15,-0.13,29.76,96720.72
475114,-0.11,-0.06,-1.02,0.16,0.17,0.03,29.76,96722.75
475150,-0.11,-0.06,-1.01,0.12,-0.12,-0.06,29.76,96721.13
475188,-0.11,-0.05,-1.01,0.24,0.12,-0.06,29.76,96721.13
475224,-0.11,-0.05,-1.02,0.21,0.18,0.03,29.76,96720.92
475260,-0.11,-0.05,-1.02,-0.02,0.21,-0.01,29.76,96720.92
475297,-0.11,-0.05,-1.02,0.35,0.08,-0.09,29.77,96722.46
475334,-0.11,-0.05,-1.02,0.1,0.26,-0.06,29.77,96720.8
475371,-0.11,-0.05,-1.01,0.25,0.17,-0.1,29.77,96721.16
475412,-0.11,-0.05,-1.03,-0.01,0.2,-0.09,29.77,96723.02
475451,-0.11,-0.05,-1.01,0.04,-0.08,-0.09,29.77,96723.02
475488,-0.11,-0.05,-1.02,0.25,0.05,0.08,29.77,96724.05
475524,-0.1,-0.05,-1.02,0.07,0.12,-0.01,29.77,96724.05
475560,-0.11,-0.05,-1.02,0.22,0.12,-0.23,29.78,96722.25
475599,-0.11,-0.05,-1.02,0.09,0,-0.13,29.78,96721.75
475636,-0.11,-0.05,-1.02,0.13,-0.14,0.1,29.78,96721.75
475671,-0.11,-0.05,-1.02,0.28,-0.12,-0.04,29.78,96723.94
475709,-0.11,-0.05,-1.02,-0.01,0.23,0.11,29.78,96723.94
475752,-0.11,-0.05,-1.01,0.16,0.15,-0.04,29.78,96723.64
475787,-0.11,-0.05,-1.02,0.09,-0.06,-0.16,29.78,96723.64
475823,-0.11,-0.05,-1.02,0.09,0.03,-0.01,29.78,96720.99
475862,-0.11,-0.06,-1.02,0.21,0.25,-0.07,29.78,96722.64
475898,-0.11,-0.05,-1.03,-0.02,0.08,0.02,29.78,96722.64
475934,-0.11,-0.05,-1.02,0.22,0,0.1,29.78,96722.18
475970,-0.11,-0.05,-1.02,0.19,-0.08,0.14,29.78,96722.18
476008,-0.11,-0.05,-1.01,0.24,0.21,-0.01,29.78,96720.36
476050,-0.11,-0.05,-1.02,0.22,0.23,-0.15,29.78,96720.36
476085,-0.11,-0.05,-1.02,0.13,0.08,-0.1,29.79,96721.89
476122,-0.11,-0.05,-1.02,0.09,0.25,-0.03,29.79,96720.56
476161,-0.1,-0.05,-1.02,0.36,0.09,-0.19,29.79,96720.56
476196,-0.11,-0.05,-1.02,0.04,0.23,-0.19,29.79,96723.55
476232,-0.1,-0.05,-1.02,0.24,0.12,-0.06,29.79,96723.55
476269,-0.11,-0.05,-1.02,0.35,0.05,0.14,29.79,96719.77
476307,-0.11,-0.05,-1.01,0.24,-0.04,-0.13,29.79,96719.77
476344,-0.11,-0.05,-1.01,-0.3,0,0.13,29.79,96719.1
476385,-0.1,-0.05,-1.02,-0.01,0.18,0,29.79,96721.42
476421,-0.11,-0.05,-1.01,0.13,-0.03,-0.15,29.79,96721.42
476457,-0.11,-0.05,-1.02,0.28,0.32,-0.3,29.8,96718.8
476494,-0.11,-0.05,-1.02,0.27,0.12,-0.07,29.8,96718.8
476531,-0.1,-0.05,-1.01,0.19,-0.27,-0.21,29.8,96720.96
476568,-0.11,-0.05,-1.02,0.24,0.14,-0.06,29.8,96720.96
476605,-0.11,-0.05,-1.02,0.53,0,-0.07,29.8,96722.82
476642,-0.11,-0.05,-1.02,0.12,-0.06,0,29.8,96722.82
476684,-0.1,-0.05,-1.02,0.07,0.02,0.03,29.8,96722.15
476720,-0.11,-0.05,-1.02,0.1,0.18,-0.01,29.8,96722.99
476756,-0.1,-0.05,-1.02,0.28,0.06,0.13,29.8,96722.99
476795,-0.11,-0.05,-1.02,0.22,-0.09,0.16,29.8,96720.32
476832,-0.11,-0.05,-1.01,0.41,0.02,-0.03,29.8,96720.32
476868,-0.11,-0.05,-1.02,0.35,0.44,-0.16,29.8,96721.02
476905,-0.11,-0.05,-1.02,0.25,-0.15,-0.27,29.8,96721.02
476943,-0.11,-0.05,-1.02,-0.07,0.41,-0.07,29.8,96722.38
476981,-0.11,-0.05,-1.02,0.21,0.02,-0.26,29.8,96720.86
477037,-0.11,-0.05,-1.02,0.15,0.32,-0.12,29.8,96720.86
477076,-0.11,-0.05,-1.03,-0.02,0.34,-0.32,29.81,96721.92
477114,-0.11,-0.05,-1.02,0.41,0.2,0.16,29.81,96722.75
477150,-0.11,-0.05,-1.01,0.12,0.03,0.02,29.81,96722.75
477186,-0.11,-0.05,-1.02,0.09,0.02,-0.01,29.81,96720.92
477224,-0.11,-0.05,-1.02,0.48,0.35,-0.18,29.81,96720.92
477263,-0.11,-0.05,-1.02,0.28,0.02,-0.09,29.81,96719.42
477298,-0.11,-0.05,-1.02,0.28,0.18,0.03,29.81,96719.42
477334,-0.11,-0.05,-1.01,0.15,0.12,-0.01,29.8,96722.21
477377,-0.11,-0.05,-1.01,0.1,0.06,0.13,29.8,96721.05
477414,-0.11,-0.05,-1.02,0.47,-0.11,-0.18,29.8,96721.05
477449,-0.11,-0.05,-1.02,0.15,0.11,0.17,29.8,96720.55
477486,-0.11,-0.05,-1.02,0.21,0.18,-0.15,29.8,96720.55
477524,-0.1,-0.05,-1.02,0.21,0.32,0.08,29.81,96723.41
477560,-0.11,-0.05,-1.01,-0.16,-0.03,-0.21,29.81,96723.41
477596,-0.1,-0.05,-1.01,-0.05,0.02,-0.09,29.81,96724.91
477633,-0.1,-0.05,-1.02,-0.01,0.14,0.26,29.81,96724.11
477675,-0.1,-0.06,-1.02,0.42,0.17,-0.18,29.81,96724.11
477711,-0.11,-0.05,-1.02,0.3,0.05,0,29.81,96721.42
477748,-0.11,-0.05,-1.02,0.13,-0.21,-0.3,29.81,96721.42
477785,-0.11,-0.05,-1.02,-0.02,0.09,0.1,29.81,96723.91
477822,-0.11,-0.05,-1.01,0.18,0.18,0.02,29.81,96723.91
477893,-0.11,-0.05,-1.01,0.18,-0.01,-0.23,29.81,96724.78
477931,-0.11,-0.06,-1.02,0.22,0.02,-0.1,29.81,96724.78
477968,-0.1,-0.05,-1.02,0.18,0.05,0.11,29.81,96722.28
478005,-0.1,-0.05,-1.02,0.1,0.2,0.08,29.81,96722.28
478048,-0.11,-0.05,-1.01,0.22,0.18,-0.16,29.81,96718.97
478085,-0.11,-0.05,-1.02,0.19,-0.03,-0.1,29.81,96718.97
478120,-0.11,-0.05,-1.02,0.47,-0.06,0.03,29.81,96721.92
478157,-0.11,-0.06,-1.02,0.15,-0.06,0.11,29.81,96722.61
478196,-0.11,-0.05,-1.02,0.45,0.02,-0.18,29.81,96722.61
478233,-0.11,-0.05,-1.02,0.09,0.23,0.02,29.81,96721.65
478269,-0.11,-0.05,-1.02,0.44,0.08,-0.19,29.81,96721.65
478306,-0.1,-0.05,-1.01,0.24,0.03,0.1,29.81,96722.32
478349,-0.11,-0.06,-1.01,0.04,0.34,-0.09,29.81,96721.16
478384,-0.1,-0.05,-1.02,0.28,-0.06,-0.03,29.81,96720.78
478419,-0.11,-0.05,-1.02,-0.14,0.21,-0.21,29.82,96722.38
478458,-0.1,-0.05,-1.01,0.16,0.05,0.13,29.82,96722.38
478495,-0.1,-0.05,-1.01,0.28,-0.06,0.02,29.82,96722.52
478531,-0.1,-0.05,-1.01,0.22,0.28,-0.16,29.82,96722.52
478567,-0.1,-0.06,-1.02,0.03,0.2,0.14,29.81,96721.99
478605,-0.11,-0.06,-1.01,0.36,0.15,-0.01,29.81,96721.99
478643,-0.11,-0.05,-1.01,0.39,0.23,0.13,29.82,96722.38
478682,-0.1,-0.05,-1.01,0.22,0.26,-0.12,29.82,96725.67
478718,-0.1,-0.05,-1.02,0.32,0.14,0.03,29.82,96725.67
478757,-0.1,-0.05,-1.02,0.28,0.21,0.11,29.82,96723.71
478793,-0.11,-0.05,-1.01,0.3,0.25,-0.12,29.82,96723.71
478829,-0.11,-0.05,-1.02,0.04,-0.18,-0.09,29.82,96720.85
478866,-0.11,-0.06,-1.02,0.3,-0.12,0.03,29.82,96720.85
478904,-0.1,-0.05,-1.02,0.13,-0.17,-0.01,29.82,96723.21
478941,-0.11,-0.05,-1.02,0.21,0.2,-0.06,29.82,96721.72
478982,-0.1,-0.05,-1.01,0.21,-0.11,-0.16,29.82,96721.72
479019,-0.1,-0.06,-1.02,0.12,0.03,-0.01,29.82,96722.05
479055,-0.1,-0.05,-1.02,0.22,0.06,-0.09,29.82,96722.05
479092,-0.11,-0.05,-1.02,0.13,0.08,0.07,29.82,96720.22
479129,-0.1,-0.05,-1.01,-0.02,-0.01,-0.12,29.82,96720.22
479166,-0.11,-0.05,-1.02,0.09,0.21,-0.09,29.82,96724.54
479203,-0.1,-0.05,-1.02,0.22,0.2,-0.12,29.82,96723.71
479239,-0.1,-0.05,-1.01,0.19,0.14,-0.1,29.82,96723.71
479276,-0.1,-0.05,-1.01,0.25,-0.08,0.02,29.82,96722.39
479316,-0.1,-0.05,-1.02,0.03,0.12,-0.09,29.82,96722.39
479353,-0.1,-0.05,-1.02,0.22,-0.04,-0.04,29.82,96722.42
479392,-0.1,-0.06,-1.01,0.22,0.02,0.17,29.82,96722.42
479429,-0.1,-0.05,-1.02,0.44,0.08,-0.06,29.83,96724.44
479465,-0.1,-0.05,-1.01,0.44,0.21,0.03,29.82,96721.25
479502,-0.11,-0.05,-1.02,0.32,-0.03,-0.06,29.82,96721.25
479540,-0.1,-0.06,-1.02,0.28,0.29,-0.04,29.82,96723.25
479577,-0.11,-0.05,-1.01,0.12,0.25,-0.13,29.82,96723.25
479616,-0.1,-0.06,-1.01,0.44,0.17,-0.21,29.83,96723.61
479654,-0.1,-0.05,-1.01,0.32,0.37,-0.04,29.83,96723.61
479691,-0.1,-0.06,-1.02,0.35,0.12,0.08,29.83,96723.61
479727,-0.1,-0.05,-1.02,0.12,0.54,0.05,29.83,96722.28
479763,-0.1,-0.05,-1.01,0.35,0.31,0.14,29.83,96722.28
479801,-0.1,-0.05,-1.02,0.1,0.21,-0.06,29.83,96724.28
479839,-0.1,-0.05,-1.02,0.28,0.2,0.03,29.83,96724.28
479875,-0.1,-0.05,-1.02,0.3,0.11,-0.06,29.83,96723.78
479909,-0.1,-0.05,-1.02,0.13,0.17,-0.21,29.83,96723.78
479953,-0.1,-0.05,-1.02,-0.17,0.17,0.2,29.83,96722.95
479989,-0.1,-0.05,-1.02,0.32,0.02,-0.06,29.82,96722.58
480025,-0.1,-0.05,-1.02,0.1,0.18,0.05,29.82,96722.58
480062,-0.1,-0.05,-1.02,0.06,-0.06,-0.04,29.83,96722.95
480100,-0.1,-0.05,-1.01,0.09,0.03,0.28,29.83,96722.95
480137,-0.1,-0.06,-1.01,-0.07,0.29,-0.07,29.83,96723.11
480173,-0.1,-0.05,-1.02,0.21,-0.14,-0.07,29.83,96723.11
480209,-0.11,-0.05,-1.02,0.3,0.2,-0.27,29.83,96723.45
480250,-0.1,-0.05,-1.02,-0.07,0.06,0.02,29.83,96723.49
480287,-0.11,-0.05,-1.02,0.28,-0.24,-0.1,29.83,96723.49
480324,-0.11,-0.05,-1.02,0.12,-0.08,-0.03,29.83,96723.52
480361,-0.1,-0.05,-1.02,0.09,0.28,0.03,29.83,96723.52
480398,-0.1,-0.05,-1.01,0.28,0.41,-0.13,29.83,96722.62
480434,-0.1,-0.05,-1.02,0.19,0,0.07,29.83,96722.62
480471,-0.1,-0.05,-1.01,0.03,0.25,-0.16,29.84,96722.22
480507,-0.1,-0.06,-1.01,0.19,0.06,-0.1,29.84,96722.22
480544,-0.1,-0.05,-1.02,0.09,0.18,-0.04,29.83,96724.67
480587,-0.1,-0.05,-1.02,0.13,0.09,0.11,29.84,96725.53
480624,-0.1,-0.05,-1.01,-0.13,0.26,0.05,29.84,96725.53
480660,-0.1,-0.05,-1.02,0.12,0.02,-0.03,29.83,96725.34
480697,-0.11,-0.05,-1.02,0.3,0.15,-0.01,29.83,96725.34
480736,-0.1,-0.06,-1.02,0.35,0.32,-0.15,29.83,96722.46
480773,-0.11,-0.05,-1.01,0.1,0.11,0.07,29.83,96724.01
480808,-0.1,-0.05,-1.01,0.12,0.03,0.23,29.83,96724.01
480845,-0.1,-0.05,-1.02,0.38,0.23,-0.13,29.83,96725
480883,-0.1,-0.06,-1.01,0.42,0.14,-0.15,29.83,96725
480917,-0.1,-0.05,-1.03,0.51,0.03,0.03,29.83,96721.19
480953,-0.1,-0.05,-1.02,0.24,0.47,0.02,29.83,96721.19
480990,-0.1,-0.05,-1.02,0.03,0.26,-0.12,29.83,96721.69
481028,-0.1,-0.05,-1.01,0.15,0.17,0,29.83,96721.69
481064,-0.1,-0.05,-1.02,0.18,0.35,-0.13,29.83,96722.49
481101,-0.1,-0.05,-1.02,0.13,-0.21,0,29.83,96728.16
481275,-0.1,-0.05,-1.02,0.18,0.17,0,29.84,96724.21
481312,-0.1,-0.05,-1.02,0.25,0.26,-0.1,29.84,96724.21
481352,-0.1,-0.05,-1.02,0.25,0.31,0.05,29.84,96724.21
481404,-0.1,-0.05,-1.02,0.1,0.21,-0.19,29.84,96721.55
481443,-0.1,-0.06,-1.02,0.25,0.05,0.03,29.84,96723.08
481481,-0.1,-0.06,-1.02,0.27,-0.03,-0.03,29.84,96723.08
481517,-0.1,-0.06,-1.02,0.21,0.25,-0.15,29.84,96725.93
481553,-0.1,-0.05,-1.01,0.13,0.14,-0.19,29.84,96725.93
481592,-0.1,-0.06,-1.02,0.06,0.08,0,29.84,96722.61
481630,-0.1,-0.06,-1.02,0.04,0.25,-0.15,29.84,96726.73
481666,-0.1,-0.05,-1.02,0.06,-0.03,-0.13,29.84,96726.73
481707,-0.1,-0.05,-1.02,0.22,0.21,-0.07,29.84,96722.78
481744,-0.1,-0.05,-1.02,0.01,0.55,-0.07,29.84,96722.78
481781,-0.1,-0.05,-1.02,0.12,0.32,-0.13,29.84,96726.6
481816,-0.1,-0.05,-1.02,0.25,0.08,0,29.84,96726.6
481853,-0.1,-0.05,-1.02,0.19,-0.03,-0.04,29.84,96724.27
481891,-0.1,-0.05,-1.02,0.1,-0.12,-0.1,29.84,96723.94
481928,-0.1,-0.05,-1.02,0.19,0.26,0.19,29.84,96723.94
481964,-0.1,-0.05,-1.02,0.32,0.14,0.03,29.84,96726.3
482006,-0.1,-0.06,-1.02,-0.19,0.05,0.22,29.84,96726.3
482042,-0.1,-0.05,-1.02,0.35,0.25,-0.03,29.84,96723.58
482078,-0.1,-0.06,-1.02,0.32,0.14,-0.24,29.84,96723.58
482116,-0.1,-0.05,-1.01,0.27,0.32,-0.24,29.84,96725.77
482154,-0.1,-0.05,-1.01,-0.01,0.23,0.03,29.84,96724.47
482191,-0.1,-0.05,-1.02,0.1,0.26,-0.07,29.84,96724.47
482227,-0.1,-0.05,-1.02,0.18,0.2,-0.03,29.84,96723.14
482264,-0.1,-0.05,-1.01,0.15,0.06,0.02,29.84,96723.14
482300,-0.1,-0.05,-1.02,0.15,0.08,0.11,29.84,96724.3
482340,-0.1,-0.05,-1.03,0.06,0.08,-0.32,29.84,96724.3
482379,-0.1,-0.05,-1.02,0.22,0.06,-0.07,29.84,96723.47
482415,-0.1,-0.05,-1.02,0.09,0.03,0.02,29.85,96727.13
482451,-0.1,-0.05,-1.02,0.19,0.14,-0.26,29.85,96727.13
482488,-0.1,-0.05,-1.02,0.22,0.08,0.03,29.84,96723.31
482526,-0.1,-0.05,-1.02,0.07,0.05,0.32,29.84,96723.31
482563,-0.1,-0.05,-1.01,0.35,-0.03,0.08,29.84,96724.47
482597,-0.1,-0.05,-1.02,0.18,0.06,0.02,29.84,96724.47
482639,-0.1,-0.06,-1.02,0.15,0.14,-0.06,29.85,96725.14
482677,-0.1,-0.05,-1.02,0.42,-0.04,-0.06,29.85,96724.47
482713,-0.1,-0.05,-1.02,0.19,0.18,-0.18,29.85,96724.47
482749,-0.1,-0.06,-1.02,0.1,0.2,-0.16,29.85,96726.3
482787,-0.1,-0.05,-1.02,0.25,-0.2,-0.33,29.85,96726.3
482825,-0.1,-0.05,-1.01,0.1,0.28,-0.13,29.85,96725.5
482861,-0.1,-0.05,-1.02,0.38,0.03,-0.15,29.85,96725.5
482895,-0.1,-0.06,-1.01,0.19,-0.04,0.28,29.85,96724.02
482934,-0.1,-0.05,-1.02,0.15,0.12,0,29.85,96724.67
482975,-0.1,-0.06,-1.02,0.07,0.08,-0.03,29.85,96724.67
483011,-0.1,-0.06,-1.02,0.01,0.14,-0.16,29.85,96726.37
483048,-0.1,-0.05,-1.01,0.09,-0.23,0.02,29.85,96726.37
483086,-0.1,-0.05,-1.01,0.27,0.08,-0.1,29.85,96728.86
483123,-0.1,-0.05,-1.01,0.03,0.09,-0.16,29.85,96728.86
483158,-0.1,-0.05,-1.02,0.27,0.06,-0.15,29.85,96725.67
483194,-0.1,-0.05,-1.02,0.06,0.21,0.13,29.85,96725.67
483232,-0.1,-0.05,-1.01,0.24,0.32,-0.04,29.85,96725.17
483283,-0.1,-0.05,-1.02,0.09,0,-0.09,29.85,96724.05
483322,-0.1,-0.05,-1.02,0.09,0.23,-0.21,29.85,96724.05
483361,-0.1,-0.06,-1.02,-0.01,-0.2,-0.12,29.85,96724.85
483396,-0.1,-0.05,-1.02,0.35,-0.03,-0.23,29.85,96725.01
483432,-0.1,-0.05,-1.02,0.45,0.11,-0.3,29.85,96725.01
483473,-0.1,-0.05,-1.02,0.15,0,-0.01,29.85,96726.7
483511,-0.1,-0.06,-1.02,0.07,0.08,-0.07,29.85,96726.7
483546,-0.1,-0.06,-1.02,0.04,0.02,0.14,29.86,96725.41
483581,-0.1,-0.05,-1.02,0.15,-0.2,-0.01,29.86,96725.41
483624,-0.1,-0.06,-1.01,0.32,0.03,-0.09,29.85,96727.53
483661,-0.1,-0.05,-1.02,-0.16,0.06,-0.04,29.86,96726.73
483697,-0.1,-0.05,-1.02,0.07,-0.18,0.11,29.86,96726.73
483734,-0.1,-0.05,-1.02,0.28,0.02,-0.06,29.86,96724.91
483772,-0.1,-0.05,-1.02,0.33,-0.04,-0.03,29.86,96724.91
483809,-0.1,-0.06,-1.02,-0.08,0.18,-0.13,29.86,96726.6
483844,-0.1,-0.05,-1.02,0.06,0.03,-0.03,29.86,96726.6
483880,-0.1,-0.05,-1.02,0.24,0.02,0.11,29.86,96727.6
483922,-0.1,-0.05,-1.02,0.13,-0.15,0,29.86,96726.4
483959,-0.1,-0.06,-1.02,0.1,0.09,0.08,29.86,96726.4
483996,-0.1,-0.05,-1.02,0.07,-0.12,-0.04,29.86,96723.08
484033,-0.1,-0.05,-1.02,0.15,0.18,0.05,29.86,96723.08
484070,-0.1,-0.05,-1.02,0.04,0.02,-0.12,29.86,96725.27
484106,-0.09,-0.05,-1.02,0.19,0.12,-0.06,29.86,96725.27
484144,-0.1,-0.05,-1.02,0.36,0.02,-0.09,29.86,96724.64
484179,-0.1,-0.05,-1.01,0.15,0.31,-0.1,29.86,96726.46
484216,-0.1,-0.05,-1.02,0.22,0.17,-0.12,29.86,96726.46
484258,-0.1,-0.05,-1.02,0.13,0.09,-0.03,29.86,96723.48
484295,-0.1,-0.05,-1.01,0.04,0.28,0,29.86,96723.48
484330,-0.1,-0.05,-1.01,0.32,0.12,0,29.86,96725.6
484367,-0.1,-0.05,-1.01,0.01,0.43,-0.23,29.86,96725.6
484406,-0.1,-0.05,-1.01,0.21,0.08,-0.13,29.86,96728.99
484442,-0.1,-0.06,-1.02,0.15,0.12,-0.1,29.86,96728.62
484477,-0.1,-0.05,-1.02,0.16,-0.03,-0.09,29.86,96728.62
484514,-0.09,-0.05,-1.02,0.19,-0.04,0.03,29.86,96725.47
484552,-0.1,-0.05,-1.02,0.1,0.18,0.07,29.86,96725.47
484592,-0.1,-0.06,-1.02,0.22,0.05,0.08,29.86,96725.64
484628,-0.1,-0.05,-1.02,0.01,-0.12,-0.18,29.86,96725.64
484667,-0.1,-0.06,-1.02,0.5,-0.03,0.05,29.86,96725.33
484706,-0.1,-0.05,-1.02,0.07,-0.24,-0.13,29.86,96725.17
484741,-0.1,-0.05,-1.01,-0.02,0.2,0.05,29.86,96725.17
484776,-0.1,-0.06,-1.02,0.19,0.23,-0.09,29.86,96725.83
484814,-0.1,-0.05,-1.01,-0.02,0.08,-0.27,29.86,96725.83
484852,-0.1,-0.05,-1.02,0.19,-0.26,0.14,29.86,96725.14
484891,-0.1,-0.05,-1.02,0.04,-0.08,0.11,29.86,96725.14
484929,-0.09,-0.05,-1.02,0.28,0.14,-0.06,29.86,96724.41
484967,-0.1,-0.06,-1.02,0.13,0.03,-0.04,29.86,96726.3
485003,-0.1,-0.05,-1.01,0.24,0.31,0.02,29.86,96726.3
485039,-0.1,-0.05,-1.02,0.09,0.11,-0.1,29.86,96725.33
485075,-0.1,-0.05,-1.02,0.15,-0.09,0.07,29.86,96725.33
485113,-0.1,-0.05,-1.02,0.07,-0.14,-0.18,29.86,96724.64
485150,-0.1,-0.05,-1.02,-0.14,0.03,-0.04,29.86,96724.64
485186,-0.1,-0.06,-1.02,0.36,0.31,-0.07,29.86,96726.33
485228,-0.09,-0.05,-1.01,0.09,-0.12,0.05,29.86,96724.94
485265,-0.1,-0.05,-1.02,0.3,0.09,0.07,29.86,96724.94
485301,-0.1,-0.05,-1.02,0.21,0.02,0.1,29.86,96726.66
485338,-0.1,-0.05,-1.02,0.28,0.14,-0.09,29.86,96726.66
485374,-0.09,-0.06,-1.01,0.38,0.12,-0.1,29.86,96726
485411,-0.1,-0.05,-1.02,0.16,0.12,0.1,29.86,96726
485448,-0.1,-0.05,-1.02,0.25,0.06,-0.06,29.86,96725.5
485486,-0.1,-0.06,-1.02,0.06,0.31,-0.18,29.86,96725.5
485544,-0.1,-0.06,-1.02,-0.02,0.02,0.1,29.87,96726.53
485585,-0.1,-0.05,-1.02,0.21,-0.2,-0.16,29.87,96726.36
485623,-0.1,-0.05,-1.02,0.27,0.25,-0.09,29.86,96725.67
485658,-0.1,-0.05,-1.02,0.25,0.12,-0.1,29.86,96725.67
485696,-0.1,-0.05,-1.01,0.21,-0.09,-0.12,29.86,96723.51
485735,-0.1,-0.05,-1.02,-0.05,-0.08,0.2,29.86,96723.51
485772,-0.1,-0.05,-1.02,0.21,0.15,0.08,29.86,96726.83
485808,-0.1,-0.05,-1.02,0.1,0.14,-0.1,29.86,96726.83
485844,-0.1,-0.06,-1.01,0.35,0.18,-0.24,29.87,96727.03
485886,-0.1,-0.05,-1.02,0.18,-0.14,-0.18,29.87,96724.71
485922,-0.1,-0.05,-1.02,0.39,-0.11,0.22,29.87,96724.71
485960,-0.1,-0.05,-1.01,0.28,-0.06,0.05,29.87,96725.41
485997,-0.1,-0.05,-1.02,0.38,0.03,-0.13,29.87,96725.41
486034,-0.1,-0.05,-1.02,-0.07,-0.2,0.07,29.87,96726.73
486071,-0.1,-0.05,-1.02,-0.17,0,-0.16,29.87,96726.73
486108,-0.1,-0.05,-1.01,0.44,0.23,-0.03,29.87,96724.91
486145,-0.1,-0.06,-1.01,0.36,0.05,-0.03,29.87,96727.39
486185,-0.1,-0.05,-1.02,0.3,-0.08,-0.3,29.87,96727.39
486223,-0.1,-0.05,-1.02,0.15,0.11,0.05,29.87,96724.41
486260,-0.1,-0.06,-1.02,0.3,0.08,-0.06,29.87,96724.41
486295,-0.1,-0.06,-1.02,0.13,-0.03,0.05,29.87,96724.57
486332,-0.1,-0.06,-1.02,0.28,0.02,-0.09,29.87,96724.57
486370,-0.1,-0.06,-1.02,-0.23,0.03,-0.18,29.87,96723.58
486407,-0.1,-0.05,-1.02,0.36,-0.15,0.08,29.87,96723.44
486443,-0.1,-0.05,-1.01,0.19,0.28,0.07,29.87,96723.44
486479,-0.09,-0.06,-1.02,0.12,0.26,0.05,29.87,96726.89
486521,-0.1,-0.05,-1.02,0.27,-0.01,-0.16,29.87,96726.89
486557,-0.1,-0.05,-1.02,-0.13,-0.3,0.03,29.87,96724.44
486593,-0.1,-0.05,-1.02,0.21,-0.11,0.03,29.87,96724.44
486631,-0.1,-0.06,-1.02,0.1,-0.08,-0.07,29.87,96723.75
486669,-0.1,-0.05,-1.02,0.35,0,-0.01,29.87,96723.94
486705,-0.1,-0.05,-1.01,0.22,-0.08,0.02,29.87,96723.94
486739,-0.1,-0.05,-1.02,0.3,0.18,-0.1,29.87,96725.77
486778,-0.09,-0.05,-1.01,0.35,0.25,-0.03,29.87,96725.77
486819,-0.1,-0.05,-1.02,0.15,0.06,0.03,29.87,96727.1
486855,-0.1,-0.05,-1.02,0.3,0.06,0,29.87,96727.1
486892,-0.1,-0.05,-1.02,0.38,-0.04,-0.27,29.87,96726.92
486930,-0.1,-0.06,-1.02,-0.05,0.14,-0.12,29.87,96726.92
486967,-0.1,-0.05,-1.02,0.09,0.15,-0.07,29.88,96727.27
487002,-0.1,-0.05,-1.02,0.19,-0.15,-0.03,29.88,96726.5
487038,-0.1,-0.05,-1.02,0.13,0.06,-0.23,29.88,96726.5
487076,-0.1,-0.06,-1.01,0.18,0.06,-0.06,29.88,96725.8
487113,-0.09,-0.05,-1.02,0.13,0.26,-0.1,29.88,96725.8
487155,-0.1,-0.05,-1.01,0.12,0.15,0.34,29.87,96726.27
487192,-0.1,-0.05,-1.02,0.38,0.09,0.11,29.87,96724.94
487229,-0.1,-0.05,-1.02,0.1,-0.03,-0.3,29.88,96724.94
487266,-0.09,-0.05,-1.02,0.39,0.2,-0.1,29.88,96726.77
487304,-0.1,-0.05,-1.01,-0.04,-0.09,-0.06,29.88,96726.77
487340,-0.1,-0.05,-1.02,0.09,0,0.08,29.88,96725.3
487376,-0.1,-0.05,-1.02,0.15,-0.01,-0.04,29.88,96725.3
487413,-0.1,-0.05,-1.01,-0.02,-0.01,-0.01,29.87,96723.78
487455,-0.1,-0.05,-1.01,-0.08,-0.14,0.07,29.87,96726.92
487491,-0.1,-0.05,-1.02,0.24,0.08,0.02,29.87,96726.92
487528,-0.1,-0.05,-1.02,0.24,0.17,0.11,29.87,96726.43
487566,-0.09,-0.05,-1.01,0.3,0.03,-0.01,29.87,96726.43
487603,-0.1,-0.05,-1.02,0.27,-0.17,-0.09,29.88,96725.97
487638,-0.09,-0.05,-1.02,0.38,-0.35,0,29.88,96725.97
487674,-0.09,-0.05,-1.02,-0.02,-0.01,0.05,29.88,96725.97
487713,-0.09,-0.05,-1.01,0.07,0.15,-0.01,29.88,96725.97
487749,-0.1,-0.06,-1.02,0.09,0.03,0,29.87,96723.94
487789,-0.1,-0.05,-1.02,0.15,-0.17,-0.03,29.88,96722.32
487827,-0.09,-0.05,-1.01,-0.01,0.05,0.03,29.88,96722.32
487865,-0.1,-0.06,-1.02,0.19,0.15,-0.23,29.88,96724.28
487900,-0.09,-0.06,-1.02,-0.01,0.14,-0.1,29.88,96724.28
487936,-0.1,-0.05,-1.02,0.27,0.14,0.05,29.88,96723.67
487973,-0.1,-0.05,-1.02,0.24,-0.08,-0.13,29.88,96723.67
488011,-0.1,-0.06,-1.02,0.06,-0.11,0.07,29.88,96726.5
488047,-0.1,-0.05,-1.01,0.18,0.41,-0.16,29.88,96723.85
488088,-0.1,-0.05,-1.02,0.38,0.2,0.05,29.88,96723.85
488126,-0.1,-0.06,-1.01,-0.04,0.17,-0.09,29.88,96722.99
488162,-0.1,-0.05,-1.02,-0.07,-0.09,-0.16,29.88,96722.99
488198,-0.09,-0.05,-1.02,0.16,0.2,-0.12,29.88,96724.17
488235,-0.1,-0.06,-1.02,0.15,-0.09,0.05,29.88,96724.17
488272,-0.09,-0.05,-1.02,0.22,-0.15,-0.03,29.88,96722.71
488309,-0.1,-0.05,-1.01,0.09,0.05,-0.15,29.88,96723.02
488345,-0.1,-0.05,-1.02,-0.01,-0.01,0.03,29.88,96723.02
488382,-0.09,-0.05,-1.02,0.16,0.18,-0.24,29.88,96722.18
488423,-0.1,-0.06,-1.01,0.16,-0.03,-0.23,29.88,96722.18
488460,-0.1,-0.06,-1.01,0.06,-0.04,0.11,29.88,96720.99
488498,-0.09,-0.06,-1.02,0.18,-0.01,0.08,29.88,96720.99
488535,-0.1,-0.05,-1.02,0.1,-0.09,0.05,29.88,96722.52
488571,-0.09,-0.05,-1.01,0.3,-0.12,0.03,29.88,96725.87
488608,-0.1,-0.06,-1.02,0.18,0,-0.24,29.88,96725.87
488645,-0.1,-0.05,-1.01,0.25,-0.11,0.08,29.88,96725.17
488682,-0.1,-0.05,-1.01,0.13,0.25,-0.29,29.88,96725.17
488722,-0.1,-0.05,-1.01,0.36,0.15,-0.12,29.88,96724.84
488760,-0.1,-0.05,-1.02,0.1,-0.04,0.03,29.88,96724.84
488797,-0.1,-0.05,-1.01,0.22,0.37,0.08,29.88,96724.53
488833,-0.1,-0.05,-1.02,0.24,0.2,-0.13,29.89,96728.22
488869,-0.1,-0.06,-1.02,0.19,-0.09,0.13,29.89,96728.22
488907,-0.1,-0.06,-1.02,0.03,0.08,0,29.89,96725.92
488943,-0.09,-0.05,-1.01,-0.01,-0.06,-0.13,29.89,96725.92
488979,-0.1,-0.05,-1.02,0.12,-0.03,-0.21,29.89,96722.91
489016,-0.1,-0.05,-1.02,0.19,0.14,-0.03,29.89,96722.91
489059,-0.09,-0.05,-1.01,0.27,0.02,0.03,29.89,96722.61
489095,-0.09,-0.05,-1.02,0.3,0.38,-0.24,29.89,96725.43
489129,-0.1,-0.06,-1.02,0.22,0.29,-0.18,29.89,96725.43
489168,-0.1,-0.05,-1.01,0.48,-0.01,-0.18,29.89,96722.75
489205,-0.1,-0.05,-1.01,0.35,-0.06,0.11,29.89,96722.75
489241,-0.09,-0.05,-1.01,0.33,0.14,-0.07,29.89,96724.9
489277,-0.1,-0.06,-1.02,0.15,-0.03,0.07,29.89,96724.9
489315,-0.1,-0.06,-1.02,0.22,0.09,-0.12,29.89,96723.94
489356,-0.09,-0.05,-1.02,0.03,0.12,-0.07,29.89,96722.78
489392,-0.1,-0.06,-1.01,0.22,-0.03,0.14,29.89,96722.78
489428,-0.09,-0.05,-1.02,0.07,-0.37,-0.04,29.89,96723.25
489466,-0.1,-0.06,-1.02,-0.08,0.15,0.03,29.89,96723.25
489503,-0.1,-0.05,-1.02,0.18,-0.21,-0.21,29.89,96723.25
489539,-0.1,-0.05,-1.02,0.13,-0.01,-0.16,29.89,96723.25
489576,-0.09,-0.05,-1.02,0.01,0.09,-0.16,29.89,96724.07
489614,-0.1,-0.05,-1.02,0.35,-0.03,0.1,29.89,96724.07
489650,-0.1,-0.05,-1.02,0.13,0.26,-0.01,29.89,96724.11
489693,-0.1,-0.05,-1.02,0.3,0.15,-0.01,29.89,96723.94
489747,-0.09,-0.05,-1.02,0.09,-0.12,-0.16,29.89,96725.77
489786,-0.1,-0.05,-1.01,0.12,0.11,-0.26,29.89,96725.07
489828,-0.1,-0.05,-1.01,0.22,0.21,-0.01,29.89,96721.78
489866,-0.1,-0.06,-1.01,0.51,-0.06,-0.04,29.89,96721.78
489903,-0.1,-0.05,-1.01,0.15,-0.11,0.08,29.89,96726.27
489940,-0.1,-0.06,-1.02,0.07,0.02,0.11,29.89,96726.27
489978,-0.1,-0.06,-1.01,0.27,-0.06,-0.03,29.89,96723.94
490021,-0.1,-0.06,-1.02,0.07,-0.04,-0.04,29.89,96725.14
490056,-0.1,-0.06,-1.02,0.06,0.02,-0.12,29.89,96725.14
490093,-0.1,-0.05,-1.02,0.32,0.05,0.05,29.89,96723.61
490131,-0.1,-0.05,-1.02,-0.02,0.06,0,29.89,96723.61
490168,-0.09,-0.05,-1.02,0.21,-0.17,-0.15,29.9,96724.83
490204,-0.1,-0.05,-1.02,0.41,0.15,-0.07,29.9,96724.83
490241,-0.1,-0.05,-1.02,0.16,-0.14,-0.06,29.89,96725.14
490278,-0.1,-0.05,-1.02,0.12,-0.08,0.14,29.89,96725.14
490315,-0.1,-0.05,-1.02,0.18,0.09,-0.21,29.89,96725.14
490354,-0.09,-0.05,-1.01,0.3,-0.08,-0.03,29.9,96724.83
490392,-0.09,-0.05,-1.02,0.28,-0.04,0,29.9,96724.83
490430,-0.1,-0.05,-1.01,0.13,0.25,0.13,29.9,96725.67
490466,-0.1,-0.06,-1.02,0.04,0.18,-0.09,29.9,96725.67
490501,-0.1,-0.06,-1.02,0.32,0.31,-0.1,29.9,96725.67
490540,-0.09,-0.05,-1.02,-0.13,-0.18,-0.1,29.9,96726.53
490576,-0.1,-0.05,-1.02,0.24,-0.3,-0.09,29.9,96726.53
490612,-0.1,-0.05,-1.01,-0.01,-0.15,-0.09,29.9,96726.69
490653,-0.09,-0.06,-1.02,0.32,0.17,-0.18,29.9,96726.69
490691,-0.1,-0.06,-1.02,0.22,-0.21,0.05,29.9,96727.69
490727,-0.1,-0.05,-1.01,0.53,0.21,0.1,29.9,96727.69
490763,-0.1,-0.05,-1.01,0.22,0.18,-0.19,29.9,96728.19
490800,-0.1,-0.06,-1.02,0.01,0.06,-0.1,29.9,96726.33
490838,-0.1,-0.06,-1.02,0.07,0.25,0.07,29.9,96726.33
490874,-0.1,-0.05,-1.02,0.07,-0.15,-0.16,29.9,96726.36
490910,-0.09,-0.05,-1.02,0.28,0.08,-0.1,29.9,96726.36
490947,-0.1,-0.06,-1.02,0.33,0.34,-0.07,29.9,96727.22
490989,-0.1,-0.06,-1.02,0.22,-0.23,-0.19,29.9,96727.22
491025,-0.1,-0.05,-1.01,0.19,0.17,-0.1,29.9,96725.7
491063,-0.1,-0.05,-1.02,-0.04,-0.06,0.2,29.9,96727.22
491101,-0.1,-0.05,-1.02,-0.1,-0.14,0.26,29.9,96727.22
491138,-0.1,-0.06,-1.01,0.06,-0.01,-0.09,29.9,96725.37
491173,-0.1,-0.05,-1.02,0.01,0.05,-0.04,29.9,96725.37
491211,-0.09,-0.05,-1.02,0.18,0.08,-0.18,29.9,96723.54
491247,-0.1,-0.05,-1.02,0.27,0.29,-0.15,29.9,96723.54
491288,-0.1,-0.05,-1.02,0.15,0.14,-0.09,29.9,96723.54
491326,-0.1,-0.05,-1.02,0.21,0.18,-0.18,29.9,96723.71
491363,-0.1,-0.06,-1.02,0.07,0.03,-0.09,29.9,96723.71
491398,-0.1,-0.05,-1.02,0.18,0.09,0.07,29.9,96725.2
491435,-0.09,-0.06,-1.02,0.13,0.02,-0.12,29.9,96725.2
491473,-0.1,-0.05,-1.02,0.16,0.03,-0.01,29.9,96724.9
491509,-0.1,-0.05,-1.02,0.09,0.02,-0.09,29.9,96724.9
491545,-0.1,-0.05,-1.01,0.13,0.15,0.1,29.9,96724.21
491582,-0.09,-0.05,-1.01,-0.05,0.18,0,29.9,96723.41
491625,-0.1,-0.05,-1.01,0.06,0.12,0.05,29.9,96723.41
491661,-0.09,-0.06,-1.02,-0.04,0.05,-0.15,29.9,96725.42
491696,-0.1,-0.06,-1.02,0.1,-0.06,-0.1,29.9,96725.42
491735,-0.1,-0.05,-1.02,0.21,0.14,0.08,29.9,96726.39
491771,-0.09,-0.05,-1.02,0.24,0.21,0.05,29.9,96726.39
491807,-0.1,-0.05,-1.02,0.06,0,0.07,29.9,96723.27
491843,-0.09,-0.06,-1.02,0.01,0.2,-0.01,29.9,96726.1
491881,-0.09,-0.05,-1.01,0.1,-0.01,-0.13,29.9,96725.73
491922,-0.1,-0.05,-1.01,0.12,0.31,-0.19,29.9,96725.77
491958,-0.09,-0.05,-1.02,0.22,-0.14,0.17,29.9,96725.77
491995,-0.09,-0.06,-1.01,0.15,0.05,0.02,29.9,96728.42
492033,-0.1,-0.05,-1.01,0.28,0,-0.1,29.9,96728.42
492069,-0.1,-0.06,-1.02,0.47,0.03,0.11,29.9,96725.42
492105,-0.1,-0.05,-1.02,0.16,0.15,-0.1,29.9,96726.26
492142,-0.09,-0.05,-1.03,0.12,-0.08,-0.23,29.9,96725.53
492180,-0.09,-0.05,-1.02,-0.1,-0.12,0.02,29.91,96725.6
492216,-0.1,-0.05,-1.02,0.36,0,-0.12,29.91,96725.6
492258,-0.1,-0.05,-1.02,0.03,0.23,-0.1,29.9,96723.94
492295,-0.1,-0.06,-1.02,0.16,-0.08,0.22,29.9,96723.94
492332,-0.1,-0.05,-1.01,0.09,0,-0.15,29.9,96725.27
492368,-0.09,-0.05,-1.02,0.28,0.29,0.03,29.9,96722.44
492406,-0.1,-0.05,-1.02,0.25,-0.04,0.11,29.9,96722.44
492443,-0.09,-0.05,-1.01,0.28,0.28,0.17,29.9,96726.22
492479,-0.1,-0.05,-1.01,-0.01,-0.03,0,29.9,96726.22
492516,-0.1,-0.05,-1.02,0.04,0.11,-0.04,29.9,96726.1
492558,-0.1,-0.05,-1.01,0.04,-0.15,-0.03,29.9,96726.1
492594,-0.1,-0.05,-1.02,0.12,-0.06,0.08,29.91,96725.93
492631,-0.1,-0.05,-1.02,0.22,0.17,-0.21,29.91,96725.1
492668,-0.09,-0.06,-1.02,0.21,-0.08,-0.03,29.91,96725.1
492705,-0.1,-0.05,-1.02,0.15,-0.06,-0.06,29.91,96725.96
492740,-0.09,-0.05,-1.01,0.1,0.12,-0.1,29.91,96725.96
492777,-0.1,-0.06,-1.02,-0.05,0.14,-0.09,29.91,96726.42
492815,-0.09,-0.05,-1.01,0.16,-0.08,0.08,29.91,96726.42
492852,-0.1,-0.05,-1.02,0.24,0.09,-0.21,29.9,96725.1
492891,-0.1,-0.05,-1.01,0.15,-0.37,-0.12,29.9,96726.26
492930,-0.1,-0.05,-1.02,0.32,0.17,-0.01,29.91,96726.6
492966,-0.1,-0.05,-1.02,0.07,0,0.08,29.91,96727.13
493002,-0.1,-0.05,-1.02,0.27,0.21,-0.04,29.91,96727.13
493038,-0.09,-0.05,-1.02,0.07,-0.14,-0.04,29.91,96725.6
493076,-0.09,-0.05,-1.02,-0.08,0.14,0,29.91,96725.6
493114,-0.1,-0.05,-1.01,0.21,0.03,-0.12,29.91,96723.47
493150,-0.1,-0.06,-1.01,0.39,0.34,-0.27,29.91,96723.47
493190,-0.09,-0.05,-1.02,0.13,0.14,-0.23,29.91,96725.27
493229,-0.1,-0.06,-1.01,0.1,0.06,-0.13,29.91,96727.46
493264,-0.09,-0.06,-1.02,0.35,0.18,-0.12,29.91,96727.46
493300,-0.1,-0.06,-1.02,0.16,0.26,-0.29,29.91,96725.3
493337,-0.1,-0.05,-1.02,0.35,0.25,-0.03,29.91,96725.3
493375,-0.1,-0.05,-1.02,0.36,0.14,0.08,29.91,96725.46
493412,-0.09,-0.06,-1.02,0.18,0.03,0.07,29.91,96725.46
493447,-0.1,-0.06,-1.02,0.22,-0.14,0.14,29.91,96725.97
493484,-0.1,-0.06,-1.02,-0.08,0.29,0.02,29.91,96727.79
493538,-0.09,-0.05,-1.02,0.07,0.29,0.16,29.91,96727.79
493573,-0.1,-0.06,-1.02,0.12,0.09,-0.13,29.91,96725.14
493613,-0.1,-0.06,-1.02,-0.01,0.2,0.13,29.91,96724.64
493650,-0.09,-0.06,-1.02,-0.02,-0.04,-0.12,29.91,96724.64
493686,-0.09,-0.06,-1.02,-0.01,-0.03,0.14,29.91,96727.13
493722,-0.1,-0.05,-1.01,0.41,0.11,-0.07,29.91,96727.13
493760,-0.1,-0.05,-1.01,0.3,-0.2,-0.04,29.91,96724.8
493798,-0.09,-0.05,-1.01,0.03,0.09,-0.09,29.91,96724.8
493839,-0.1,-0.05,-1.02,0.18,0.4,-0.18,29.91,96722.48
493892,-0.09,-0.05,-1.02,0.21,0.06,0.05,29.91,96724.31
493931,-0.09,-0.05,-1.01,0.09,-0.04,0.02,29.91,96724.31
493969,-0.09,-0.06,-1.02,0.3,-0.04,-0.06,29.91,96723.64
494013,-0.09,-0.05,-1.02,0.38,0,-0.01,29.91,96725.3
494048,-0.1,-0.05,-1.02,0.27,0,0.17,29.91,96725.3
494086,-0.1,-0.06,-1.01,0.15,0.14,0.1,29.91,96721.52
494126,-0.1,-0.05,-1.02,-0.05,-0.11,0.08,29.91,96721.52
494162,-0.1,-0.05,-1.02,0.18,0.21,0.13,29.91,96723.48
494201,-0.1,-0.06,-1.01,-0.02,-0.01,0.02,29.91,96723.21
494240,-0.1,-0.05,-1.02,0.04,0.23,0.08,29.92,96723.21
494278,-0.1,-0.06,-1.03,0.07,0.08,0,29.92,96724.87
494313,-0.1,-0.05,-1.02,0.19,0.06,-0.21,29.92,96724.87
494349,-0.1,-0.06,-1.02,0.18,0.26,-0.16,29.91,96724.34
494387,-0.09,-0.05,-1.01,0.22,-0.17,0.05,29.91,96724.34
494425,-0.1,-0.05,-1.02,0.21,0.12,0.1,29.91,96725.5
494460,-0.09,-0.06,-1.02,0.13,0.21,-0.16,29.91,96725.5
494496,-0.1,-0.05,-1.02,0.44,0.12,-0.01,29.91,96725
494539,-0.09,-0.05,-1.02,0.19,0.17,-0.18,29.91,96726.64
494575,-0.09,-0.06,-1.01,0.24,0.26,0,29.91,96726.64
494611,-0.09,-0.06,-1.02,-0.08,-0.01,-0.13,29.92,96727.19
494648,-0.09,-0.05,-1.02,0.24,0.06,-0.24,29.92,96727.19
494686,-0.09,-0.06,-1.02,0.42,-0.04,-0.15,29.91,96725.5
494723,-0.1,-0.06,-1.02,-0.04,-0.04,-0.09,29.91,96725.5
494758,-0.1,-0.06,-1.02,0.27,-0.08,-0.07,29.91,96723.35
494795,-0.09,-0.05,-1.02,0.18,0,0.08,29.91,96725.83
494837,-0.1,-0.06,-1.02,0.25,0.03,0,29.91,96725.83
494873,-0.1,-0.05,-1.01,-0.08,0.14,-0.06,29.91,96725.97
494911,-0.09,-0.05,-1.01,0.19,0.12,0.23,29.91,96725.97
494948,-0.1,-0.05,-1.02,0.36,0.06,0,29.91,96723.48
494985,-0.1,-0.06,-1.02,0.33,0.32,0.11,29.91,96723.48
495022,-0.09,-0.05,-1.01,0.33,0.21,-0.12,29.92,96725.37
495058,-0.09,-0.05,-1.02,0.44,0.2,-0.07,29.92,96726.07
495095,-0.09,-0.06,-1.02,0.19,0.2,-0.1,29.92,96726.07
495132,-0.1,-0.05,-1.02,0.09,-0.06,0.13,29.92,96725.53
495174,-0.09,-0.05,-1.02,0.53,0.21,-0.01,29.92,96725.53
495211,-0.1,-0.05,-1.02,0.21,0.41,-0.18,29.91,96726.17
495246,-0.09,-0.06,-1.01,0.18,0.08,-0.12,29.91,96726.17
495283,-0.09,-0.05,-1.02,-0.04,0.18,-0.21,29.91,96723.51
495321,-0.09,-0.06,-1.01,0.28,0.12,-0.24,29.91,96723.35
495357,-0.09,-0.05,-1.02,0.15,0.09,-0.03,29.91,96723.35
495393,-0.09,-0.05,-1.01,0.24,-0.06,-0.12,29.92,96726.2
495430,-0.1,-0.06,-1.02,0.06,0.17,-0.36,29.92,96726.2
495473,-0.1,-0.06,-1.02,0.18,0.11,-0.07,29.92,96724.71
495508,-0.09,-0.06,-1.02,0.3,0.05,0.02,29.92,96724.71
495544,-0.09,-0.06,-1.02,-0.14,-0.01,0.02,29.92,96723.11
495583,-0.1,-0.06,-1.01,0.19,0.26,-0.13,29.92,96723.11
495620,-0.09,-0.05,-1.01,0.21,-0.14,0.05,29.92,96723.11
495655,-0.1,-0.05,-1.01,0.12,0.21,0.11,29.92,96725.03
495691,-0.1,-0.06,-1.02,0.3,0.05,0.1,29.92,96725.03
495729,-0.09,-0.05,-1.01,-0.01,-0.08,0.22,29.92,96724.03
495767,-0.1,-0.05,-1.02,0.16,-0.04,-0.19,29.92,96724.03
495806,-0.1,-0.05,-1.02,0.19,0.23,-0.29,29.92,96724.21
495843,-0.1,-0.06,-1.02,0.21,-0.04,-0.16,29.92,96722.25
495882,-0.1,-0.05,-1.01,0.03,0.18,-0.21,29.92,96722.25
495918,-0.09,-0.06,-1.01,0.21,-0.04,0.02,29.92,96725.03
495953,-0.09,-0.05,-1.02,0.41,0.12,-0.1,29.92,96725.03
495990,-0.09,-0.05,-1.02,0.21,-0.01,-0.19,29.92,96725.73
496028,-0.1,-0.06,-1.02,0.15,0.05,0.02,29.92,96725.73
496065,-0.1,-0.05,-1.02,0.13,0.09,0.05,29.92,96723.74
496106,-0.1,-0.05,-1.01,0.22,-0.15,-0.06,29.92,96727.07
496144,-0.1,-0.05,-1.02,0.15,0.14,0,29.92,96727.07
496181,-0.1,-0.05,-1.02,0.19,-0.03,-0.06,29.92,96727.29
496217,-0.1,-0.05,-1.03,0.1,0.12,-0.09,29.92,96727.29
496254,-0.09,-0.05,-1.01,0.07,0.14,-0.04,29.92,96725.8
496292,-0.09,-0.05,-1.02,0.22,-0.3,0.1,29.92,96725.8
496329,-0.1,-0.05,-1.02,0.32,0.38,-0.16,29.92,96727.39
496366,-0.1,-0.06,-1.01,0.21,0.11,0.08,29.92,96725.43
496403,-0.1,-0.05,-1.02,0.18,0,-0.01,29.92,96725.43
496443,-0.1,-0.05,-1.01,-0.02,-0.14,0.14,29.92,96724.07
496480,-0.1,-0.06,-1.02,0.28,0.09,-0.04,29.92,96724.07
496518,-0.1,-0.06,-1.02,0.16,0.46,-0.03,29.92,96723.77
496555,-0.1,-0.05,-1.02,0.3,-0.11,-0.09,29.92,96723.77
496590,-0.1,-0.06,-1.02,0.54,0.18,-0.13,29.92,96723.74
496627,-0.1,-0.06,-1.02,0.24,0.46,0.05,29.92,96725.13
496665,-0.09,-0.05,-1.02,0.04,0.11,0.11,29.92,96725.13
496702,-0.1,-0.06,-1.01,0.25,0.2,0,29.93,96726.16
496741,-0.1,-0.05,-1.02,0.16,-0.01,-0.23,29.93,96726.16
496779,-0.1,-0.05,-1.02,0.33,0.03,0.05,29.93,96724.5
496817,-0.09,-0.05,-1.02,0.1,0.06,0.05,29.93,96724.5
496852,-0.09,-0.06,-1.02,0.25,-0.32,0.07,29.92,96724.14
496887,-0.09,-0.05,-1.02,0.13,0.05,-0.19,29.92,96724.5
496926,-0.1,-0.05,-1.02,0.3,-0.09,0.08,29.93,96724.5
496964,-0.1,-0.05,-1.02,0.1,0.05,0.08,29.93,96725.66
496999,-0.09,-0.05,-1.02,0.04,0.32,-0.04,29.93,96725.66
497035,-0.09,-0.05,-1.02,0.19,0.11,-0.18,29.93,96723.17
497078,-0.09,-0.05,-1.02,0.09,-0.21,0.1,29.93,96723.17
497115,-0.09,-0.06,-1.02,0.16,-0.09,-0.1,29.93,96724.53
497149,-0.1,-0.06,-1.02,0.12,0.03,-0.15,29.93,96725.33
497187,-0.09,-0.05,-1.02,0.44,-0.09,-0.12,29.93,96725.33
497225,-0.09,-0.05,-1.02,0.39,-0.03,0.16,29.93,96726.35
497261,-0.09,-0.05,-1.01,0.07,0.02,-0.09,29.93,96726.35
497297,-0.09,-0.05,-1.02,0.1,0.09,0.07,29.93,96724.33
497334,-0.09,-0.05,-1.02,0.19,-0.03,-0.06,29.93,96724.33
497376,-0.1,-0.05,-1.02,0.04,-0.37,-0.19,29.92,96727.13
497412,-0.09,-0.06,-1.01,-0.02,-0.15,0.03,29.92,96726
497449,-0.09,-0.05,-1.01,-0.2,0.09,-0.21,29.93,96726
497486,-0.09,-0.05,-1.01,-0.1,0.03,0.1,29.93,96726.03
497523,-0.09,-0.06,-1.02,-0.05,-0.06,-0.12,29.93,96726.03
497560,-0.09,-0.05,-1.02,0.22,-0.11,-0.12,29.93,96724.17
497597,-0.09,-0.05,-1.02,0.25,-0.12,-0.04,29.93,96724.17
497634,-0.1,-0.06,-1.02,0.07,0.08,-0.07,29.93,96724.17
497671,-0.09,-0.06,-1.02,0.07,0.12,0.08,29.93,96724.17
497713,-0.1,-0.06,-1.01,0.03,0.06,-0.04,29.93,96723.5
497748,-0.09,-0.05,-1.02,0.15,0.38,0.05,29.93,96721.35
497784,-0.1,-0.05,-1.02,0.15,-0.09,-0.03,29.93,96721.35
497821,-0.09,-0.06,-1.02,0.15,0.23,-0.12,29.93,96722.04
497859,-0.09,-0.06,-1.02,0.42,0.02,0.07,29.93,96722.04
497896,-0.1,-0.05,-1.02,0.06,0.17,-0.04,29.93,96725.19
497932,-0.09,-0.05,-1.02,0.1,0.08,-0.13,29.93,96725.19
497969,-0.1,-0.06,-1.01,-0.01,-0.01,-0.09,29.93,96723
498012,-0.09,-0.05,-1.01,0.19,-0.33,0.02,29.93,96723.21
498050,-0.1,-0.05,-1.02,-0.14,0.12,-0.18,29.93,96723.21
498110,-0.09,-0.05,-1.02,0.3,0.17,-0.12,29.93,96727.52
498148,-0.1,-0.06,-1.01,-0.1,0.18,-0.07,29.93,96724.71
498188,-0.1,-0.05,-1.01,-0.01,0.11,0,29.93,96724.71
498225,-0.09,-0.05,-1.02,0.21,0.06,-0.04,29.93,96724.17
498260,-0.09,-0.05,-1.02,0.03,0.11,-0.19,29.93,96724.17
498298,-0.09,-0.05,-1.02,0.38,0,-0.09,29.93,96724.5
498336,-0.09,-0.05,-1.02,0.45,0,-0.19,29.93,96724.83
498377,-0.1,-0.05,-1.02,0.21,0.08,-0.16,29.93,96724.83
498412,-0.09,-0.06,-1.01,0.21,0.08,-0.33,29.93,96723.21
498451,-0.09,-0.05,-1.02,0.19,-0.2,0.03,29.93,96723.21
498489,-0.09,-0.05,-1.02,0.48,0.02,0,29.93,96723.37
498525,-0.1,-0.05,-1.02,0.03,-0.09,-0.13,29.93,96723.71
498560,-0.1,-0.05,-1.02,0.12,0.18,-0.07,29.93,96724.01
498598,-0.09,-0.05,-1.01,0.12,0.14,-0.1,29.93,96724.17
498635,-0.1,-0.06,-1.02,0.28,0.14,-0.04,29.93,96724.17
498675,-0.09,-0.06,-1.02,0.19,0.14,-0.07,29.93,96723.71
498713,-0.09,-0.05,-1.02,0.38,0.11,-0.01,29.93,96723.71
498751,-0.09,-0.06,-1.02,0.22,-0.01,-0.24,29.93,96725.67
498788,-0.1,-0.05,-1.02,0.13,-0.03,-0.03,29.93,96725.53
498824,-0.1,-0.06,-1.02,0.16,0.06,-0.13,29.93,96725.53
498862,-0.09,-0.05,-1.02,0.22,-0.06,-0.1,29.93,96725.5
498899,-0.09,-0.05,-1.01,-0.01,0,0.26,29.93,96725.5
498935,-0.09,-0.06,-1.02,0.12,0.05,-0.12,29.94,96726.07
498971,-0.1,-0.06,-1.02,0.01,0.25,0.02,29.94,96726.07
499013,-0.09,-0.05,-1.02,-0.05,-0.09,-0.01,29.93,96725.17
499050,-0.09,-0.06,-1.01,0.21,-0.03,-0.13,29.94,96726.39
499087,-0.1,-0.05,-1.01,0.16,0.26,-0.04,29.94,96726.39
499124,-0.1,-0.05,-1.02,0.12,0.06,-0.06,29.94,96723.08
499161,-0.09,-0.05,-1.01,0.21,0.14,0.13,29.94,96723.08
499197,-0.09,-0.05,-1.02,0.32,0.14,0.08,29.93,96723.38
499233,-0.1,-0.06,-1.02,0.22,0.05,-0.04,29.93,96723.38
499270,-0.09,-0.06,-1.02,0.27,0.26,-0.06,29.94,96725.43
499311,-0.09,-0.06,-1.02,0.27,0.21,0,29.94,96725.1
499348,-0.09,-0.06,-1.01,-0.2,0.12,0.1,29.94,96724.74
499386,-0.09,-0.05,-1.02,0.33,0.08,0.05,29.94,96723.28
499423,-0.09,-0.05,-1.02,0.47,0.06,-0.12,29.94,96723.28
499458,-0.09,-0.05,-1.02,0.03,0.02,-0.13,29.94,96723.74
499494,-0.09,-0.05,-1.02,0.16,0.08,-0.01,29.94,96723.74
499532,-0.1,-0.05,-1.02,-0.04,0.09,0.07,29.94,96723.91
499569,-0.1,-0.06,-1.01,0.28,0.12,-0.04,29.94,96723.91
499605,-0.09,-0.06,-1.01,0.38,0.06,0,29.94,96724.77
499647,-0.09,-0.05,-1.02,0.1,-0.03,-0.19,29.94,96726.77
499685,-0.1,-0.05,-1.02,0.16,0.12,-0.07,29.94,96726.77
499720,-0.1,-0.06,-1.01,0.13,0,0.05,29.93,96725.87
499756,-0.09,-0.05,-1.02,0.21,0,-0.09,29.93,96725.87
499794,-0.09,-0.05,-1.02,0.12,0.17,0.07,29.93,96724.38
499831,-0.1,-0.05,-1.02,-0.1,0.18,0.08,29.93,96724.38
499867,-0.09,-0.06,-1.01,0.33,0.03,-0.16,29.94,96722.58
499903,-0.1,-0.05,-1.01,0.3,0.14,-0.1,29.94,96725.07
499947,-0.09,-0.06,-1.02,0.19,-0.06,-0.13,29.94,96725.07
499983,-0.1,-0.05,-1.01,0.12,0.28,-0.06,29.94,96725.6
500019,-0.09,-0.06,-1.02,0.07,0.23,-0.04,29.94,96725.6
500057,-0.09,-0.05,-1.02,0.22,0.17,-0.1,29.94,96726.07
500096,-0.09,-0.05,-1.01,0.3,0.11,0.1,29.94,96726.07
500131,-0.1,-0.05,-1.02,0.1,0.08,-0.09,29.94,96724.11
500167,-0.09,-0.05,-1.02,0.25,-0.2,0.16,29.94,96724.47
500204,-0.1,-0.05,-1.02,0.07,0.02,0.14,29.94,96724.47
500242,-0.09,-0.06,-1.02,0.32,0.11,-0.21,29.94,96722.28
500283,-0.1,-0.05,-1.02,0.32,0.2,0.11,29.94,96722.28
500320,-0.1,-0.05,-1.02,0.16,0.08,0.05,29.94,96724.11
500357,-0.09,-0.05,-1.01,0.06,0.06,-0.01,29.94,96724.11
500393,-0.09,-0.06,-1.03,0.01,-0.23,0.22,29.94,96722.78
500429,-0.1,-0.05,-1.02,-0.04,0.21,-0.19,29.94,96723.8
500467,-0.09,-0.06,-1.02,-0.04,0.23,-0.03,29.94,96723.8
500503,-0.1,-0.06,-1.02,0.15,-0.15,-0.07,29.94,96723.34
500540,-0.09,-0.06,-1.02,0.15,-0.15,0.2,29.94,96723.34
500577,-0.1,-0.05,-1.02,0.12,0.2,0.08,29.94,96724
500612,-0.1,-0.05,-1.01,-0.01,0.14,-0.13,29.94,96724
500648,-0.09,-0.05,-1.02,0.12,-0.11,0.13,29.94,96724.83
500685,-0.1,-0.05,-1.02,0.13,0.02,-0.04,29.94,96724.83
500722,-0.09,-0.05,-1.02,0.18,0.02,0.13,29.94,96723.77
500759,-0.09,-0.05,-1.02,0.22,-0.01,0,29.95,96725.86
500795,-0.09,-0.06,-1.01,-0.14,0.08,-0.3,29.95,96725.86
500833,-0.09,-0.05,-1.01,0.33,0.18,-0.12,29.94,96722.81
500869,-0.09,-0.06,-1.01,0.27,0.18,0.02,29.94,96722.81
500911,-0.09,-0.05,-1.02,0.32,-0.04,0.07,29.95,96723.87
500946,-0.09,-0.06,-1.02,0.12,0.11,0.08,29.95,96723.87
500983,-0.09,-0.05,-1.02,0.18,-0.09,-0.06,29.94,96723.97
501021,-0.09,-0.06,-1.01,0.12,0.15,-0.06,29.95,96725.36
501058,-0.09,-0.05,-1.02,0.22,0.14,0.07,29.95,96725.36
501093,-0.1,-0.05,-1.02,0.24,0.08,-0.01,29.95,96726.03
501130,-0.09,-0.06,-1.02,0.39,-0.11,-0.04,29.95,96726.03
501168,-0.09,-0.06,-1.01,0.21,0.05,-0.1,29.94,96723.67
501204,-0.09,-0.05,-1.02,0.1,-0.2,-0.01,29.94,96723.67
501244,-0.1,-0.05,-1.02,-0.02,0.06,0,29.94,96723.5
501283,-0.1,-0.06,-1.02,0.04,0.08,-0.03,29.95,96725.36
501321,-0.1,-0.06,-1.02,0.35,0.2,-0.07,29.95,96725.36
501357,-0.1,-0.05,-1.02,0.3,0.08,0.16,29.95,96725.69
501392,-0.09,-0.05,-1.01,0.21,0.18,-0.15,29.95,96725.69
501432,-0.1,-0.05,-1.02,0.03,0.02,-0.03,29.94,96723.17
501469,-0.09,-0.05,-1.02,0.35,-0.14,-0.04,29.94,96723.17
501505,-0.09,-0.05,-1.02,0.3,-0.09,-0.21,29.95,96724.86
501545,-0.09,-0.05,-1.01,0.3,0.18,-0.1,29.95,96727.69
501583,-0.1,-0.06,-1.02,0.16,0.54,0.02,29.95,96727.69
501620,-0.1,-0.05,-1.02,0.22,0.18,-0.03,29.95,96725.86
501655,-0.09,-0.06,-1.02,0.45,0.25,-0.09,29.95,96725.86
501693,-0.09,-0.05,-1.02,0.24,0.02,0,29.94,96725
501731,-0.09,-0.05,-1.02,0.12,0.15,-0.16,29.94,96725
501767,-0.09,-0.05,-1.02,0.27,0.32,-0.07,29.95,96725.69
501803,-0.09,-0.06,-1.02,-0.05,-0.15,-0.01,29.95,96725.76
501839,-0.09,-0.05,-1.02,0.44,0.11,-0.06,29.95,96725.76
501881,-0.1,-0.06,-1.02,0.12,0,0.08,29.94,96724.83
501917,-0.09,-0.06,-1.02,0.35,-0.06,-0.12,29.94,96724.83
501955,-0.09,-0.05,-1.02,0.09,-0.03,-0.15,29.94,96726
501991,-0.1,-0.06,-1.03,0.38,-0.04,0.02,29.94,96726
502028,-0.09,-0.05,-1.02,0.28,-0.03,0.03,29.94,96726.99
502065,-0.09,-0.06,-1.01,-0.02,0.4,0.02,29.95,96728.68
502102,-0.1,-0.06,-1.01,0.16,-0.15,0.05,29.95,96728.68
502138,-0.09,-0.05,-1.02,0.18,-0.04,-0.09,29.94,96724.97
502191,-0.09,-0.06,-1.02,-0.01,0.05,0.02,29.94,96724.97
502230,-0.1,-0.06,-1.02,0.22,0,-0.3,29.94,96724.83
502266,-0.09,-0.06,-1.01,0.53,0.29,-0.03,29.95,96726.22
502319,-0.1,-0.05,-1.02,0.27,0.18,0.05,29.95,96726.22
502360,-0.09,-0.05,-1.01,0.06,0.17,0.05,29.95,96727.19
502398,-0.09,-0.05,-1.02,0.15,-0.04,-0.03,29.95,96726.42
502434,-0.1,-0.05,-1.02,0.13,0.29,0.08,29.95,96726.42
502469,-0.1,-0.05,-1.02,0.18,0.08,-0.1,29.95,96724.2
502509,-0.09,-0.05,-1.02,0.16,0.08,0.08,29.95,96724.2
502551,-0.1,-0.06,-1.02,0.3,0.11,-0.03,29.95,96726.06
502587,-0.1,-0.06,-1.02,-0.02,0.2,-0.09,29.95,96724.27
502625,-0.1,-0.05,-1.01,0.44,0.06,0.02,29.95,96724.27
502663,-0.09,-0.05,-1.02,-0.04,0.03,0.02,29.95,96725.6
502700,-0.09,-0.05,-1.02,0.06,-0.04,-0.24,29.95,96725.6
502735,-0.09,-0.06,-1.01,0.16,0.08,0.02,29.95,96724.27
502772,-0.1,-0.05,-1.02,0.19,0.05,-0.01,29.95,96724.27
502810,-0.09,-0.05,-1.02,0.15,0,0.14,29.96,96726.29
502851,-0.09,-0.06,-1.01,0.38,-0.09,0.05,29.96,96728.32
502888,-0.09,-0.05,-1.02,0.36,0.28,-0.06,29.96,96728.32
502925,-0.09,-0.05,-1.02,0.16,0.09,-0.12,29.95,96725.43
502962,-0.1,-0.05,-1.02,0.24,-0.03,-0.21,29.95,96725.43
502999,-0.09,-0.05,-1.02,0.36,-0.01,-0.09,29.95,96725.6
503035,-0.1,-0.06,-1.01,0.09,0.2,0.03,29.95,96725.6
503072,-0.09,-0.05,-1.02,0.18,0.2,-0.1,29.96,96726.32
503109,-0.1,-0.05,-1.02,0.44,-0.04,0.08,29.96,96726.32
503146,-0.09,-0.05,-1.01,0.18,0.02,-0.03,29.95,96726.6
503188,-0.09,-0.05,-1.01,0.13,0.05,-0.18,29.96,96725.67
503223,-0.1,-0.05,-1.02,0.12,-0.04,-0.12,29.96,96725.67
503260,-0.1,-0.06,-1.03,0.04,-0.04,-0.1,29.95,96725.43
503299,-0.09,-0.05,-1.02,0.38,0.08,0.13,29.95,96725.43
503335,-0.1,-0.05,-1.02,0.01,-0.03,-0.06,29.95,96727.08
503370,-0.09,-0.06,-1.02,0.44,-0.03,-0.16,29.95,96727.08
503407,-0.09,-0.05,-1.01,0.25,-0.06,-0.01,29.95,96725.69
503446,-0.09,-0.05,-1.01,0.3,0.05,-0.12,29.96,96727.96
503486,-0.1,-0.05,-1.02,0.15,0.05,-0.07,29.96,96727.96
503522,-0.09,-0.05,-1.02,0.42,0.08,0.03,29.96,96725.46
503561,-0.09,-0.05,-1.02,-0.01,-0.17,0.17,29.96,96725.46
503599,-0.09,-0.05,-1.02,0.16,0.35,-0.13,29.95,96726.1
503633,-0.1,-0.05,-1.02,-0.07,0.4,0.03,29.95,96725.77
503669,-0.09,-0.05,-1.02,-0.04,0.35,-0.29,29.95,96725.77
503708,-0.09,-0.05,-1.02,0.36,-0.01,-0.03,29.95,96724.6
503746,-0.09,-0.06,-1.02,-0.02,-0.27,-0.23,29.95,96724.6
503782,-0.09,-0.06,-1.02,0.1,-0.03,-0.19,29.95,96725.43
503836,-0.09,-0.05,-1.02,0.32,0.41,-0.06,29.96,96725.33
503874,-0.09,-0.05,-1.02,0.19,0.06,-0.19,29.96,96725.33
503910,-0.09,-0.06,-1.02,0.19,-0.2,-0.01,29.96,96725.3
503947,-0.09,-0.05,-1.02,-0.11,-0.37,-0.23,29.96,96725.3
503987,-0.09,-0.05,-1.02,0.07,0.06,-0.06,29.96,96724.96
504024,-0.1,-0.06,-1.02,0.13,0.11,-0.13,29.96,96724.96
504059,-0.09,-0.06,-1.02,0.1,0.43,0.03,29.96,96726.99
504096,-0.1,-0.06,-1.02,0.09,-0.2,-0.09,29.96,96724.33
504139,-0.1,-0.05,-1.02,0.25,-0.18,0.02,29.96,96724.33
504175,-0.09,-0.06,-1.02,0.12,0.08,0.03,29.95,96722.91
504211,-0.09,-0.05,-1.01,0.1,0,-0.23,29.95,96722.91
504249,-0.09,-0.05,-1.02,0.19,-0.24,0.07,29.95,96725.39
504287,-0.09,-0.06,-1.02,0.19,-0.17,-0.01,29.95,96725.39
504323,-0.09,-0.05,-1.02,0.24,-0.4,-0.13,29.96,96724.3
504358,-0.1,-0.05,-1.02,0.24,-0.18,-0.1,29.96,96724.66
504397,-0.1,-0.06,-1.02,0.22,0.14,-0.1,29.96,96724.66
504435,-0.09,-0.05,-1.02,-0.13,0.2,0.03,29.96,96724.17
504474,-0.1,-0.05,-1.01,0.16,0.15,-0.09,29.96,96724.17
504511,-0.09,-0.05,-1.02,0.28,0.14,-0.07,29.96,96725.3
504550,-0.09,-0.06,-1.01,0.42,0.05,0.17,29.96,96725.3
504586,-0.09,-0.05,-1.02,0.13,-0.09,0,29.96,96724.8
504622,-0.1,-0.05,-1.03,0.28,-0.24,-0.03,29.96,96725.17
504658,-0.09,-0.05,-1.01,0.16,-0.04,0.22,29.96,96725.17
504697,-0.1,-0.05,-1.01,0.39,0,0.03,29.96,96725.13
504733,-0.09,-0.05,-1.02,0.03,0.02,-0.12,29.96,96725.13
504774,-0.09,-0.06,-1.01,0.25,0.02,-0.16,29.96,96723.3
504811,-0.1,-0.05,-1.02,0.04,0,-0.12,29.96,96723.3
504848,-0.09,-0.05,-1.02,0.25,0.14,-0.15,29.95,96723.77
504885,-0.09,-0.05,-1.02,-0.04,0.15,0,29.96,96726.16
504922,-0.09,-0.05,-1.01,0.13,0.08,0.11,29.96,96726.16
504958,-0.09,-0.05,-1.02,0.24,0.14,-0.01,29.95,96725.77
504995,-0.09,-0.05,-1.02,0.13,-0.14,-0.06,29.95,96725.77
505032,-0.09,-0.05,-1.02,0.32,0.17,-0.03,29.96,96724.21
505069,-0.09,-0.06,-1.02,0.44,0.2,0.08,29.96,96724.21
505110,-0.09,-0.05,-1.02,0.13,-0.12,0.07,29.96,96725.8
505147,-0.09,-0.05,-1.01,0.24,-0.2,0.02,29.96,96723.8
505186,-0.09,-0.05,-1.02,0.09,0.38,-0.12,29.96,96723.8
505223,-0.09,-0.05,-1.03,0.22,-0.11,-0.16,29.96,96725.96
505259,-0.09,-0.05,-1.02,0.01,0.05,-0.12,29.96,96725.96
505295,-0.09,-0.06,-1.02,-0.1,-0.03,-0.12,29.96,96723.17
505334,-0.09,-0.06,-1.02,0.25,-0.15,-0.07,29.96,96723.17
505371,-0.09,-0.05,-1.02,0.24,-0.09,-0.04,29.96,96725.36
505410,-0.09,-0.06,-1.02,-0.04,0.14,-0.13,29.97,96726.07
505449,-0.09,-0.05,-1.02,0.41,0.15,0,29.97,96726.07
505486,-0.09,-0.05,-1.02,0.19,-0.12,-0.07,29.97,96724.24
505522,-0.09,-0.06,-1.02,0.22,-0.2,-0.03,29.97,96724.24
505558,-0.1,-0.05,-1.02,-0.02,-0.08,-0.27,29.96,96724.67
505596,-0.09,-0.06,-1.02,0.1,-0.09,-0.01,29.96,96724.67
505634,-0.09,-0.05,-1.01,-0.02,0,0.02,29.97,96723.07
505669,-0.09,-0.06,-1.02,0.22,0,0.08,29.96,96726.83
505705,-0.09,-0.06,-1.02,-0.01,0.2,-0.07,29.96,96726.83
505748,-0.09,-0.05,-1.02,-0.01,0.09,0,29.97,96725.57
505785,-0.09,-0.05,-1.02,0.01,-0.14,0,29.97,96725.57
505821,-0.09,-0.05,-1.02,0.22,0.18,-0.1,29.97,96725.89
505858,-0.1,-0.06,-1.02,0.21,-0.03,-0.23,29.97,96725.89
505895,-0.09,-0.06,-1.02,0.07,0.11,-0.19,29.97,96724.8
505932,-0.1,-0.05,-1.01,0.12,-0.15,-0.24,29.97,96726.3
505968,-0.09,-0.05,-1.01,0.19,-0.06,-0.09,29.97,96726.3
506006,-0.09,-0.06,-1.01,0.1,0.06,0.02,29.97,96725.07
506047,-0.09,-0.05,-1.02,0.24,0.15,-0.01,29.97,96725.07
506084,-0.1,-0.06,-1.02,-0.01,0.31,-0.36,29.97,96727.58
506122,-0.09,-0.05,-1.02,0.13,0.08,0.05,29.97,96727.58
506158,-0.1,-0.06,-1.02,-0.05,0.06,-0.03,29.97,96726.3
506196,-0.09,-0.05,-1.02,0.38,0,-0.06,29.98,96727.55
506245,-0.09,-0.05,-1.02,0.27,0.14,0.17,29.98,96727.55
506280,-0.09,-0.06,-1.02,0.39,0.09,0.02,29.98,96727.49
506315,-0.1,-0.05,-1.02,-0.13,0.09,0.05,29.98,96727.49
506355,-0.09,-0.06,-1.01,0.18,0.11,0.03,29.98,96726.5
506397,-0.09,-0.05,-1.02,-0.04,0.05,-0.1,29.97,96725.63
506434,-0.09,-0.05,-1.02,-0.13,-0.01,-0.23,29.97,96725.63
506489,-0.09,-0.05,-1.02,0.22,-0.06,-0.24,29.97,96723.64
506528,-0.09,-0.05,-1.02,-0.08,-0.06,0.19,29.98,96727.52
506566,-0.09,-0.06,-1.01,0.28,0.23,-0.04,29.98,96727.52
506602,-0.09,-0.05,-1.02,0.35,0.05,0.02,29.98,96726.66
506639,-0.09,-0.05,-1.02,0.28,-0.35,-0.01,29.98,96726.66
506678,-0.09,-0.06,-1.02,0.07,0,-0.06,29.98,96725.36
506719,-0.1,-0.05,-1.02,0.35,0,-0.1,29.98,96724.5
506756,-0.09,-0.05,-1.02,0.22,0.18,0,29.98,96724.5
506792,-0.09,-0.05,-1.02,0.15,-0.06,0.03,29.98,96723.71
506829,-0.09,-0.06,-1.02,0.28,0,-0.16,29.98,96723.71
506866,-0.09,-0.05,-1.02,0.06,-0.08,0.08,29.98,96723.67
506903,-0.09,-0.05,-1.02,0.12,0.18,0,29.98,96723.67
506940,-0.09,-0.05,-1.02,0.1,-0.03,0.07,29.98,96722.01
506977,-0.09,-0.05,-1.02,0.18,-0.15,-0.07,29.98,96723.03
507014,-0.09,-0.06,-1.02,0.22,0.14,-0.07,29.98,96723.03
507056,-0.1,-0.06,-1.02,0.25,0.02,-0.15,29.98,96722.67
507090,-0.09,-0.05,-1.03,0.24,-0.06,-0.1,29.98,96722.67
507128,-0.09,-0.05,-1.02,0.33,0.15,-0.1,29.98,96723.53
507166,-0.1,-0.05,-1.02,0.12,-0.2,0.13,29.98,96723.53
507203,-0.09,-0.06,-1.02,0.22,-0.18,-0.06,29.98,96723.33
507238,-0.09,-0.05,-1.02,0.22,0.11,0.17,29.98,96724.33
507275,-0.1,-0.06,-1.02,0.19,0.28,-0.27,29.98,96724.33
507314,-0.09,-0.06,-1.02,0.25,0.03,-0.01,29.98,96725.19
507354,-0.1,-0.05,-1.02,0.3,-0.2,-0.03,29.98,96725.19
507389,-0.09,-0.06,-1.02,0.09,0.09,-0.16,29.97,96722.81
507427,-0.09,-0.06,-1.02,0.13,-0.06,0.22,29.97,96722.81
507465,-0.09,-0.05,-1.01,0.25,0.17,-0.15,29.98,96724
507501,-0.1,-0.06,-1.02,0.3,0.08,-0.09,29.98,96723.17
507537,-0.09,-0.06,-1.02,0.04,-0.03,0,29.98,96723.17
507575,-0.09,-0.05,-1.02,0.45,0.08,0.16,29.97,96722.64
507613,-0.1,-0.05,-1.01,0.24,0.29,-0.03,29.97,96722.64
507649,-0.09,-0.06,-1.01,0.1,-0.03,-0.07,29.98,96724.89
507691,-0.09,-0.06,-1.02,0.13,0.12,-0.07,29.98,96724.89
507728,-0.09,-0.05,-1.02,0.03,0.18,0.03,29.98,96725.59
507765,-0.09,-0.06,-1.02,0.1,-0.21,-0.13,29.98,96723.57
507801,-0.1,-0.05,-1.02,-0.17,0.18,-0.04,29.98,96723.57
507839,-0.09,-0.06,-1.02,0.25,0.17,-0.01,29.98,96721.21
507877,-0.09,-0.05,-1.01,0.1,0.08,-0.16,29.98,96721.21
507914,-0.09,-0.06,-1.01,-0.14,-0.08,0,29.98,96724.83
507950,-0.09,-0.05,-1.02,-0.04,0.41,0.1,29.98,96724.83
507992,-0.09,-0.05,-1.02,0.06,-0.18,-0.07,29.98,96723.33
508028,-0.1,-0.05,-1.02,0.12,-0.06,-0.13,29.98,96727.35
508065,-0.09,-0.05,-1.02,0.35,0.03,-0.19,29.98,96727.35
508102,-0.09,-0.06,-1.02,0.15,0.11,0.16,29.98,96725.22
508139,-0.09,-0.06,-1.02,0.19,0.06,-0.1,29.98,96725.22
508176,-0.1,-0.06,-1.02,0.09,0.12,0.05,29.98,96724.2
508213,-0.1,-0.05,-1.02,0.22,0,0.19,29.98,96724.2
508250,-0.09,-0.05,-1.02,0.13,0.12,-0.01,29.98,96725.39
508286,-0.09,-0.05,-1.02,0.03,-0.04,-0.06,29.98,96726.19
508327,-0.09,-0.06,-1.01,0.42,0.25,0,29.98,96726.19
508365,-0.09,-0.05,-1.02,-0.07,0.03,0.14,29.98,96724.2
508402,-0.1,-0.05,-1.02,-0.04,0.29,-0.06,29.98,96724.2
508437,-0.1,-0.06,-1.02,-0.07,0.21,0.05,29.98,96723.71
508475,-0.09,-0.05,-1.02,0.09,-0.14,0,29.98,96723.71
508513,-0.09,-0.06,-1.02,0.1,-0.01,-0.09,29.98,96727.02
508550,-0.09,-0.06,-1.01,0.27,-0.11,-0.1,29.98,96727.39
508585,-0.09,-0.06,-1.02,0.28,0.09,-0.1,29.98,96727.39
508627,-0.09,-0.06,-1.02,0.15,-0.29,-0.03,29.98,96723.57
508665,-0.1,-0.05,-1.02,0.12,0.32,0.02,29.98,96723.57
508701,-0.1,-0.05,-1.02,0.04,0.09,-0.12,29.98,96723.87
508736,-0.09,-0.05,-1.02,0.21,0.2,0.13,29.98,96723.87
508775,-0.09,-0.06,-1.01,0.04,0.23,0,29.98,96726.85
508813,-0.1,-0.05,-1.02,0.07,0.09,-0.03,29.98,96722.53
508848,-0.09,-0.06,-1.02,0.22,-0.08,-0.04,29.98,96722.53
508883,-0.09,-0.06,-1.02,0.28,-0.08,-0.06,29.98,96725.07
508922,-0.09,-0.05,-1.02,0.28,-0.09,0,29.98,96725.07
508963,-0.09,-0.06,-1.02,0.3,0.34,0.03,29.98,96727.22
508999,-0.09,-0.06,-1.02,0.28,0.03,-0.24,29.98,96727.22
509037,-0.09,-0.06,-1.02,0.25,0.15,0.14,29.99,96727.59
509076,-0.09,-0.05,-1.02,0.25,-0.06,-0.09,29.98,96726.89
509113,-0.09,-0.06,-1.02,0.12,-0.17,0.11,29.98,96726.89
509148,-0.09,-0.06,-1.02,0.41,0,-0.26,29.98,96725.16
509186,-0.09,-0.05,-1.02,-0.11,-0.14,-0.01,29.98,96725.16
509223,-0.09,-0.06,-1.02,0.12,-0.09,-0.19,29.99,96726.29
509263,-0.09,-0.05,-1.02,0.33,0,0.07,29.99,96726.29
509301,-0.09,-0.05,-1.01,0.24,0.18,-0.16,29.99,96726.6
509337,-0.09,-0.06,-1.02,0.24,0.06,0.13,29.98,96724.27
509375,-0.09,-0.06,-1.01,0.06,0.14,0.17,29.98,96724.27
509411,-0.09,-0.05,-1.02,0.01,0.02,-0.15,29.98,96722.88
509449,-0.09,-0.05,-1.02,0.51,0.14,-0.21,29.98,96722.88
509485,-0.09,-0.05,-1.02,0.12,0.15,-0.04,29.99,96724.6
509521,-0.09,-0.05,-1.02,0.1,-0.12,-0.18,29.99,96724.6
509558,-0.09,-0.05,-1.02,0.13,-0.06,-0.1,29.99,96726.63
509600,-0.09,-0.05,-1.02,0.13,-0.09,-0.04,29.98,96725.76
509636,-0.09,-0.06,-1.02,0.3,0.06,0.05,29.98,96725.76
509673,-0.09,-0.05,-1.02,0.39,0.18,-0.07,29.99,96725.27
509711,-0.09,-0.05,-1.02,0.22,0.15,-0.03,29.99,96725.27
509748,-0.1,-0.05,-1.02,0.32,0.06,-0.03,29.98,96724.07
509784,-0.09,-0.06,-1.02,0.47,-0.04,0.07,29.98,96724.07
509820,-0.09,-0.05,-1.02,0.13,0.03,-0.07,29.99,96726.79
509858,-0.09,-0.05,-1.02,0.15,-0.03,0.17,29.99,96725.92
509899,-0.09,-0.05,-1.02,-0.14,0.02,-0.03,29.99,96725.92
509934,-0.09,-0.05,-1.02,0.13,-0.04,-0.04,29.99,96724.14
509973,-0.09,-0.06,-1.02,0.04,-0.01,-0.18,29.99,96724.14
510011,-0.1,-0.06,-1.02,0.24,-0.33,-0.18,29.99,96725.96
510047,-0.09,-0.05,-1.02,0.33,-0.08,-0.06,29.99,96725.96
510082,-0.09,-0.06,-1.02,0.36,0.12,-0.15,29.99,96724.96
510120,-0.09,-0.05,-1.01,0.32,0.03,0.03,29.99,96723
510158,-0.09,-0.05,-1.02,-0.04,-0.01,-0.1,29.99,96723
510195,-0.09,-0.06,-1.02,0.27,-0.04,0,29.99,96724.5
510251,-0.09,-0.05,-1.01,0.18,0.21,-0.06,29.99,96724.5
510288,-0.09,-0.06,-1.02,0.35,0.28,0.22,29.99,96724.93
510325,-0.09,-0.05,-1.02,0.07,-0.14,-0.01,29.99,96725.83
510361,-0.09,-0.05,-1.01,0.25,-0.06,-0.32,29.99,96725.83
510399,-0.09,-0.05,-1.02,0.25,0.25,0.14,29.99,96727.46
510437,-0.09,-0.06,-1.01,0.27,0.41,-0.03,29.99,96727.46
510474,-0.09,-0.06,-1.02,0.38,-0.12,0,29.99,96725.33
510510,-0.09,-0.05,-1.02,-0.14,0.11,0.02,29.99,96725.33
510552,-0.09,-0.06,-1.02,0.22,0,-0.18,29.99,96725.92
510588,-0.09,-0.05,-1.01,0.03,0.18,-0.09,29.99,96725.33
510624,-0.09,-0.05,-1.02,0.24,0.29,0.03,29.99,96725.33
510663,-0.09,-0.06,-1.01,0.01,0.17,0.07,29.99,96725.79
510716,-0.09,-0.06,-1.02,0.1,0.06,-0.1,29.99,96726.66
510754,-0.09,-0.05,-1.02,0.19,-0.08,0.07,29.99,96726.66
510792,-0.09,-0.06,-1.02,0.13,-0.01,-0.13,29.99,96725.33
510829,-0.09,-0.06,-1.02,0.15,0.12,0.02,29.99,96725.33
510866,-0.09,-0.05,-1.01,0.22,-0.23,-0.18,30,96725.53
510907,-0.09,-0.05,-1.02,0.16,0,-0.38,29.99,96726.16
510946,-0.09,-0.06,-1.02,-0.13,0.14,0.05,29.99,96726.16
510983,-0.09,-0.06,-1.01,0.41,-0.06,-0.04,29.99,96727.32
511019,-0.1,-0.06,-1.02,0.19,-0.01,-0.04,29.99,96727.32
511055,-0.09,-0.06,-1.02,0.42,0.35,-0.04,30,96725.69
511093,-0.09,-0.05,-1.01,0.19,-0.08,-0.21,30,96725.69
511130,-0.09,-0.06,-1.01,0.27,0.17,-0.16,29.99,96726.66
511166,-0.09,-0.05,-1.02,0.22,-0.3,0.13,29.99,96726.66
511208,-0.09,-0.05,-1.02,-0.1,0,-0.12,29.99,96726.82
511246,-0.09,-0.06,-1.02,-0.07,-0.27,-0.16,30,96729.25
511282,-0.09,-0.05,-1.02,0.35,0.03,0,30,96729.25
511316,-0.09,-0.05,-1.02,-0.05,0.06,-0.03,29.99,96728.16
511355,-0.1,-0.05,-1.02,0.42,0.2,0.02,29.99,96728.16
511393,-0.09,-0.05,-1.02,0.09,0.06,-0.23,30,96726.19
511428,-0.09,-0.06,-1.01,0.04,0.23,0.19,30,96726.19
511464,-0.09,-0.06,-1.02,0.41,0.32,-0.06,30,96726.36
511503,-0.09,-0.05,-1.02,0.19,-0.06,0.19,30,96725.53
511544,-0.1,-0.06,-1.02,0.47,-0.03,-0.24,30,96725.53
511580,-0.09,-0.05,-1.01,0.15,0.31,0.14,30,96727.69
511618,-0.09,-0.05,-1.02,0.25,0.31,0.16,30,96727.69
511656,-0.09,-0.06,-1.02,0.3,0.26,-0.18,29.99,96727.32
511693,-0.09,-0.06,-1.03,0.12,0.34,-0.06,29.99,96727.32
511728,-0.09,-0.06,-1.01,0.15,0,-0.07,29.99,96727.32
511765,-0.09,-0.06,-1.02,0.19,0.2,-0.07,29.99,96727.49
511804,-0.09,-0.05,-1.02,0.18,-0.06,-0.19,29.99,96727.49
511844,-0.09,-0.05,-1.01,0.45,-0.04,0.17,29.99,96726.33
511881,-0.09,-0.05,-1.02,0.03,0.35,-0.23,29.99,96726.33
511918,-0.09,-0.06,-1.02,0.33,0.03,0.08,29.99,96726.99
511954,-0.09,-0.05,-1.02,0.24,0.14,-0.27,29.99,96725.53
511991,-0.09,-0.05,-1.01,0.04,0.47,-0.06,30,96725.53
512028,-0.09,-0.05,-1.01,0.28,0.08,0.2,30,96725.07
512065,-0.09,-0.05,-1.01,0.27,-0.03,0.13,30,96725.07
512102,-0.09,-0.06,-1.02,0.19,0.15,-0.13,29.99,96726
512139,-0.09,-0.05,-1.02,-0.08,-0.03,-0.1,29.99,96726
512181,-0.09,-0.05,-1.02,0.21,0.18,-0.01,30,96727.19
512217,-0.09,-0.05,-1.02,0.24,0.14,-0.06,30,96723.17
512253,-0.09,-0.05,-1.01,-0.01,0.12,0.08,29.99,96723.17
512291,-0.09,-0.06,-1.02,0.39,0.11,0.02,30,96728.05
512328,-0.09,-0.05,-1.01,0.09,0.03,-0.04,30,96728.05
512364,-0.09,-0.05,-1.01,0.13,-0.09,0.02,30,96728.71
512401,-0.09,-0.05,-1.02,0.24,0.09,-0.15,30,96728.71
512439,-0.09,-0.05,-1.02,0.16,0.21,0.23,30,96731.04
512476,-0.09,-0.05,-1.02,-0.19,0.08,0.03,30,96731.04
512516,-0.09,-0.06,-1.02,-0.1,-0.03,0.03,30,96726.56
512553,-0.08,-0.06,-1.01,0.03,-0.11,-0.24,30,96727.89
512591,-0.09,-0.05,-1.02,0.24,-0.12,-0.42,30,96727.89
512627,-0.09,-0.06,-1.02,0.15,-0.23,0.08,29.99,96726.32
512663,-0.1,-0.05,-1.01,0.22,0.05,-0.12,29.99,96726.32
512701,-0.09,-0.05,-1.02,-0.02,-0.06,-0.04,30,96727.35
512739,-0.09,-0.05,-1.01,0.19,0.21,0.17,30,96727.35
512775,-0.09,-0.06,-1.01,0.03,0.31,-0.16,29.99,96726.33
512816,-0.09,-0.06,-1.02,0.13,-0.09,0,30,96729.74
512855,-0.09,-0.06,-1.02,0.57,0.26,0.11,30,96729.74
512891,-0.09,-0.05,-1.02,0.28,0.18,-0.06,30,96725.72
512927,-0.09,-0.05,-1.02,-0.16,0.4,0.1,30,96725.72
512965,-0.09,-0.06,-1.02,0.09,-0.03,-0.12,30,96725.1
513003,-0.09,-0.05,-1.02,0.19,0.17,-0.06,30,96725.36
513040,-0.09,-0.06,-1.02,-0.19,0.17,-0.21,30,96725.36
513076,-0.09,-0.05,-1.02,-0.01,0.31,-0.15,30,96726.89
513113,-0.09,-0.05,-1.02,0.18,0.12,-0.03,30,96726.89
513155,-0.09,-0.06,-1.02,0.1,0.05,-0.27,30,96728.05
513191,-0.09,-0.06,-1.02,0.32,0.4,0.11,30,96728.05
513228,-0.09,-0.05,-1.02,0.06,-0.03,-0.09,30,96728.19
513264,-0.09,-0.05,-1.02,0.01,0.11,0.13,30,96724.53
513302,-0.09,-0.05,-1.02,0.28,0.05,-0.26,30,96724.53
513338,-0.09,-0.05,-1.02,0.25,0.03,-0.16,30,96726.59
513376,-0.09,-0.05,-1.02,0.48,0,-0.07,30,96726.59
513412,-0.09,-0.06,-1.02,0.15,0.12,-0.01,30,96726.53
513453,-0.09,-0.06,-1.01,0.21,0.21,-0.03,30,96726.53
513490,-0.09,-0.06,-1.02,0.21,0.31,-0.23,30,96723.87
513527,-0.09,-0.05,-1.02,-0.05,0.05,-0.01,30,96722.84
513563,-0.09,-0.06,-1.02,0.13,0.03,-0.07,29.99,96722.84
513600,-0.09,-0.05,-1.02,0.38,0.21,0.14,30,96726.25
513638,-0.09,-0.05,-1.03,0.22,0.05,-0.03,30,96726.25
513675,-0.09,-0.05,-1.02,0.28,-0.15,0.1,30,96725.07
513711,-0.09,-0.06,-1.02,0.16,0,0.03,30,96725.07
513747,-0.09,-0.05,-1.02,0.15,-0.04,0.14,30,96724.8
513790,-0.09,-0.06,-1.02,0.19,0.14,-0.13,30,96726.92
513826,-0.09,-0.06,-1.02,-0.01,-0.08,-0.18,30,96726.92
513861,-0.09,-0.06,-1.02,0.32,-0.08,-0.24,30,96724.27
513900,-0.09,-0.05,-1.02,0.24,-0.03,0.03,30,96724.27
513938,-0.09,-0.05,-1.02,0.44,0.12,0.22,30,96724.73
513974,-0.09,-0.05,-1.02,0.1,-0.08,0.05,30,96724.73
514009,-0.09,-0.05,-1.02,0.16,0.26,0.28,30,96724.24
514048,-0.09,-0.05,-1.01,0.27,0.08,-0.12,30,96724.24
514102,-0.09,-0.05,-1.02,0.19,-0.09,0,30,96724.92
514155,-0.09,-0.06,-1.02,0.3,-0.06,0,30,96722.57
514192,-0.09,-0.05,-1,0.09,0.08,0.2,30,96724.46
514228,-0.09,-0.05,-1.02,0.06,-0.08,0,30,96724.46
514266,-0.09,-0.05,-1.02,0.09,0.08,-0.12,30,96726.42
514305,-0.09,-0.05,-1.01,0.41,0.05,-0.18,30,96726.42
514341,-0.09,-0.06,-1.02,0.42,-0.09,-0.04,30.01,96724.83
514377,-0.09,-0.05,-1.02,0.07,0.03,0.03,30.01,96724.83
514414,-0.09,-0.05,-1.02,0.19,0.08,0,30.01,96724.66
514456,-0.09,-0.06,-1.02,0.32,-0.11,0.1,30.01,96723.17
514493,-0.1,-0.06,-1.01,0.12,-0.06,-0.09,30.01,96723.17
514530,-0.09,-0.06,-1.01,0.19,0.11,-0.01,30,96724.13
514567,-0.09,-0.06,-1.02,0.18,0.21,0,30,96724.13
514604,-0.09,-0.06,-1.02,-0.02,-0.08,0.03,30,96726.28
514640,-0.09,-0.06,-1.02,0.18,-0.14,0.1,30,96727.61
514677,-0.09,-0.05,-1.02,0.06,0.28,0.23,30.01,96727.98
514714,-0.09,-0.05,-1.01,0.04,0.08,0.03,30.01,96729.17
514754,-0.09,-0.05,-1.02,0.01,0.37,-0.33,30.01,96729.17
514793,-0.09,-0.06,-1.02,0.27,0.2,-0.04,30.01,96724.53
514831,-0.09,-0.05,-1.02,0.12,0.03,-0.06,30.01,96724.53
514883,-0.09,-0.05,-1.02,0.07,0.23,-0.12,30.01,96725.69
514921,-0.09,-0.05,-1.02,0.3,0.18,0.16,30.01,96725.85
514960,-0.09,-0.05,-1.02,0.12,-0.15,-0.19,30.01,96725.85
514997,-0.09,-0.05,-1.02,-0.01,0.02,-0.09,30,96725.96
515032,-0.09,-0.06,-1.01,0.07,-0.29,0.02,30,96725.96
515069,-0.09,-0.05,-1.01,0.22,-0.17,-0.01,30.01,96726.16
515113,-0.09,-0.06,-1.02,0.09,0.14,-0.03,30.01,96727.82
515149,-0.09,-0.06,-1.02,0.13,-0.06,0.07,30.01,96727.82
515184,-0.09,-0.05,-1.02,0.25,0.17,-0.15,30,96724.13
515223,-0.09,-0.05,-1.02,0.1,0.14,-0.01,30,96724.13
515261,-0.09,-0.05,-1.02,0.19,0.08,-0.07,30.01,96723.83
515297,-0.1,-0.05,-1.02,0.13,0.02,-0.07,30.01,96726.16
515332,-0.09,-0.05,-1.02,0.13,0.26,0.02,30.01,96726.16
515371,-0.09,-0.05,-1.02,0.33,0.26,-0.03,30.01,96724.19
515411,-0.09,-0.06,-1.02,0.24,0.06,0.14,30.01,96724.19
515447,-0.09,-0.06,-1.02,0.25,0.17,0.02,30.01,96728.85
515485,-0.09,-0.05,-1.02,0.04,0.08,0.05,30.01,96728.85
515524,-0.09,-0.06,-1.02,-0.1,-0.03,0,30.01,96725.19
515561,-0.09,-0.05,-1.01,0.19,0.18,0.26,30.01,96726.99
515596,-0.09,-0.06,-1.02,0.35,-0.32,-0.15,30.01,96726.99
515633,-0.09,-0.05,-1.02,0.19,-0.09,0.07,30.01,96725.69
515672,-0.1,-0.05,-1.02,0.33,0.09,0.1,30.01,96725.69
515707,-0.09,-0.05,-1.02,0.12,0.12,0.19,30.01,96724.33
515748,-0.09,-0.05,-1.02,0.27,-0.14,0.03,30.01,96724.33
515785,-0.09,-0.05,-1.02,0.06,-0.01,-0.01,30.01,96726.85
515822,-0.09,-0.05,-1.02,0.12,0.25,-0.09,30.01,96726.85
515859,-0.09,-0.05,-1.02,0.36,-0.04,-0.13,30.01,96726.85
515896,-0.09,-0.05,-1.02,0.07,0.21,-0.01,30.01,96726.55
515933,-0.09,-0.05,-1.02,0.16,0.02,0.14,30.01,96726.55
515970,-0.09,-0.05,-1.02,-0.08,0.12,-0.04,30.01,96726.22
516006,-0.1,-0.05,-1.02,0.48,0.17,-0.13,30.01,96726.22
516048,-0.09,-0.06,-1.02,0.16,0.02,0.13,30.01,96727.55
516084,-0.09,-0.05,-1.02,0.19,-0.03,-0.06,30.01,96726.55
516121,-0.09,-0.05,-1.01,-0.3,0.17,-0.13,30.01,96726.55
516159,-0.09,-0.05,-1.03,0.21,0.12,-0.04,30.01,96727.88
516196,-0.1,-0.06,-1.02,0.15,0.25,-0.01,30.01,96727.88
516232,-0.09,-0.06,-1.02,0.09,-0.08,0.08,30.01,96723.89
516269,-0.09,-0.05,-1.02,-0.01,-0.08,0.13,30.01,96723.89
516306,-0.09,-0.05,-1.01,0.18,0.06,-0.12,30.01,96726.06
516343,-0.09,-0.06,-1.01,0.18,0.11,-0.06,30.01,96726.39
516382,-0.09,-0.05,-1.02,0.1,-0.03,0.05,30.01,96726.05
516421,-0.09,-0.05,-1.02,-0.04,0.15,0.11,30.02,96726.59
516459,-0.09,-0.06,-1.02,0.06,0.02,-0.29,30.02,96726.59
516495,-0.09,-0.05,-1.02,0.1,0.14,0.17,30.01,96726.39
516530,-0.09,-0.06,-1.02,-0.1,0.06,-0.16,30.01,96726.39
516569,-0.09,-0.05,-1.02,0.1,0.14,-0.1,30.02,96728.39
516606,-0.09,-0.05,-1.02,0.39,0.12,-0.06,30.02,96726.89
516642,-0.09,-0.06,-1.02,0.19,-0.08,0.08,30.01,96726.89
516683,-0.09,-0.05,-1.02,0.1,0.06,0.02,30.01,96724.24
516722,-0.1,-0.06,-1.02,0.06,-0.29,-0.09,30.01,96724.24
516759,-0.09,-0.05,-1.02,0.13,0.02,-0.06,30.01,96724.22
516794,-0.09,-0.05,-1.02,0.09,0.29,0.02,30.01,96724.22
516833,-0.09,-0.05,-1.02,0.03,0.11,0.02,30.01,96726.39
516871,-0.09,-0.05,-1.02,0.28,-0.03,0.03,30.01,96726.22
516908,-0.09,-0.05,-1.02,0.25,0.05,-0.03,30.01,96726.22
516943,-0.09,-0.05,-1.02,0.16,0.28,-0.04,30.01,96727.39
516980,-0.09,-0.06,-1.02,0.18,0.06,-0.04,30.01,96727.39
517022,-0.09,-0.05,-1.02,0.21,0.08,-0.01,30.02,96725.89
517059,-0.09,-0.05,-1.02,0.53,0.14,0,30.02,96725.89
517096,-0.09,-0.06,-1.02,0.28,0.05,-0.1,30.01,96729.55
517133,-0.09,-0.05,-1.02,0.06,0.09,0.02,30.02,96725.1
517170,-0.09,-0.05,-1.02,0.41,0.25,0.03,30.02,96725.1
517206,-0.09,-0.05,-1.01,0.12,0.11,0.11,30.02,96727.25
517243,-0.09,-0.05,-1.02,0.12,-0.01,0.08,30.02,96727.25
517279,-0.09,-0.06,-1.02,0.27,0.11,0.2,30.02,96725.39
517316,-0.09,-0.06,-1.02,0.18,0.2,-0.13,30.02,96725.39
517359,-0.09,-0.05,-1.02,0.27,-0.01,-0.19,30.02,96724.77
517396,-0.09,-0.05,-1.02,0.04,0.14,-0.04,30.02,96723.9
517431,-0.09,-0.05,-1.02,0.13,0,-0.01,30.02,96723.9
517468,-0.09,-0.06,-1.02,0.33,0.12,0.05,30.01,96724.72
517506,-0.09,-0.05,-1.02,0.44,0.06,-0.09,30.01,96724.72
517542,-0.09,-0.05,-1.02,0.18,-0.08,-0.09,30.02,96725.72
517578,-0.09,-0.06,-1.02,0.41,0.15,0.05,30.02,96725.72
517615,-0.09,-0.05,-1.02,0.21,-0.01,0.19,30.01,96723.07
517658,-0.09,-0.05,-1.02,0.41,0.05,-0.27,30.01,96723.89
517694,-0.09,-0.06,-1.02,0.12,0.11,0.05,30.01,96723.89
517730,-0.09,-0.06,-1.01,0.09,-0.01,-0.07,30.02,96725.72
517768,-0.09,-0.05,-1.02,0.09,-0.06,-0.07,30.02,96725.72
517806,-0.09,-0.05,-1.02,0.18,-0.21,0.07,30.01,96725.07
517841,-0.09,-0.05,-1.02,0.04,0.08,-0.13,30.01,96725.07
517876,-0.09,-0.06,-1.01,0.25,-0.03,-0.29,30.01,96725.39
517915,-0.09,-0.05,-1.01,0.19,0.06,0.16,30.01,96725.39
517953,-0.09,-0.05,-1.02,0.3,0.09,-0.07,30.02,96725.1
518011,-0.09,-0.05,-1.02,0.39,0.18,0,30.02,96726.46
518046,-0.09,-0.05,-1.02,0.03,0.29,-0.07,30.02,96726.46
518086,-0.09,-0.06,-1.01,0.25,-0.09,-0.07,30.01,96724.39
518124,-0.09,-0.05,-1.01,0.16,0.06,0.13,30.02,96725.57
518160,-0.09,-0.05,-1.02,0.21,-0.08,-0.07,30.02,96725.57
518195,-0.09,-0.05,-1.02,0.28,0.15,0.05,30.02,96725.57
518234,-0.09,-0.05,-1.02,-0.01,0.15,0.13,30.02,96725.57
518272,-0.09,-0.05,-1.03,0.15,0.25,0.03,30.01,96724.72
518310,-0.09,-0.06,-1.02,0.16,0.05,0.19,30.02,96723.77
518347,-0.09,-0.05,-1.02,-0.04,0.05,0.03,30.02,96723.77
518385,-0.09,-0.05,-1.02,0.1,0.09,0.05,30.02,96726.59
518422,-0.09,-0.06,-1.01,0.24,0.11,-0.06,30.02,96726.59
518458,-0.09,-0.05,-1.02,0.15,0.11,-0.1,30.02,96727.58
518495,-0.09,-0.06,-1.02,0.03,-0.17,-0.06,30.02,96727.58
518533,-0.09,-0.05,-1.02,0.18,-0.04,0.07,30.02,96726.07
518569,-0.09,-0.05,-1.01,0.32,0.14,0.13,30.02,96726.07
518604,-0.08,-0.06,-1.02,0.13,0.08,-0.06,30.02,96726.1
518646,-0.09,-0.05,-1.02,0.1,0.23,-0.03,30.02,96726.96
518683,-0.09,-0.06,-1.02,-0.07,0.02,0,30.02,96726.96
518720,-0.09,-0.05,-1.02,0.25,-0.17,-0.07,30.02,96725.23
518757,-0.09,-0.05,-1.02,0.18,0.26,-0.07,30.02,96725.23
518794,-0.09,-0.05,-1.02,-0.02,0.11,-0.09,30.02,96726.92
518831,-0.09,-0.06,-1.02,0.16,-0.11,-0.12,30.02,96726.92
518867,-0.09,-0.05,-1.02,0.06,0.09,-0.13,30.02,96724.6
518904,-0.09,-0.06,-1.02,0.01,-0.37,-0.01,30.02,96726.29
518945,-0.09,-0.05,-1.02,0.03,-0.01,0.05,30.02,96726.29
518982,-0.09,-0.05,-1.01,0.22,0.15,-0.13,30.02,96729.11
519020,-0.09,-0.06,-1.01,0.27,0.14,0.07,30.02,96729.11
519058,-0.09,-0.05,-1.02,0.13,0.32,-0.1,30.02,96725.63
519110,-0.09,-0.05,-1.01,-0.07,0.06,-0.1,30.02,96726.42
519148,-0.09,-0.05,-1.02,0.5,0.11,0.07,30.02,96726.42
519186,-0.09,-0.06,-1.02,-0.16,0.08,-0.12,30.02,96725.29
519223,-0.09,-0.06,-1.01,0.19,-0.12,-0.15,30.02,96725.29
519259,-0.09,-0.05,-1.01,0.32,0.12,0.11,30.02,96726.26
519303,-0.09,-0.06,-1.02,-0.14,-0.2,0.02,30.02,96723.93
519342,-0.09,-0.05,-1.03,-0.04,0.21,-0.18,30.02,96723.93
519377,-0.09,-0.05,-1.02,0.27,0.06,-0.03,30.02,96723.93
519413,-0.09,-0.05,-1.01,0.18,-0.11,0.08,30.02,96723.93
519452,-0.09,-0.06,-1.02,0.25,-0.04,-0.06,30.02,96724.5
519491,-0.09,-0.05,-1.02,0.3,-0.12,-0.21,30.02,96723.1
519526,-0.09,-0.05,-1.02,0.06,-0.01,-0.01,30.02,96723.1
519562,-0.09,-0.05,-1.02,0.22,0.11,-0.15,30.02,96722.8
519605,-0.09,-0.06,-1.02,-0.02,0.26,0.02,30.02,96722.8
519642,-0.09,-0.06,-1.02,-0.04,0.08,-0.09,30.02,96724.07
519677,-0.09,-0.05,-1.02,0.03,0.15,-0.13,30.02,96724.07
519714,-0.09,-0.05,-1.02,0.25,0.26,-0.04,30.02,96724.63
519752,-0.09,-0.06,-1.02,0.35,0.05,0.05,30.02,96724.33
519789,-0.09,-0.06,-1.02,-0.01,0.29,-0.3,30.02,96724.33
519825,-0.09,-0.05,-1.02,0.32,0,0.02,30.03,96725.35
519862,-0.09,-0.05,-1.02,-0.01,0,-0.18,30.03,96725.35
519900,-0.09,-0.06,-1.02,0.09,0.09,-0.27,30.02,96724.96
519940,-0.09,-0.05,-1.02,0.22,0.29,0.03,30.02,96724.96
519977,-0.09,-0.05,-1.02,0.18,0.14,0,30.02,96726.66
520014,-0.09,-0.05,-1.02,0.3,0.18,-0.1,30.02,96724.13
520051,-0.09,-0.05,-1.02,0.25,0.14,-0.32,30.02,96724.13
520087,-0.09,-0.05,-1.02,0.1,0.05,-0.24,30.02,96726.82
520125,-0.09,-0.05,-1.02,0.18,-0.06,-0.03,30.02,96726.82
520161,-0.09,-0.06,-1.02,0.09,0,0.05,30.02,96725.76
520198,-0.09,-0.05,-1.02,0.27,-0.09,-0.23,30.02,96725.76
520240,-0.09,-0.05,-1.02,-0.11,0.12,0.08,30.02,96728.28
520276,-0.09,-0.05,-1.02,0.28,-0.01,0.07,30.02,96723.8
520312,-0.09,-0.05,-1.02,0.15,0.08,0.08,30.02,96723.8
520349,-0.09,-0.06,-1.01,0.15,0.12,-0.06,30.03,96724.53
520387,-0.09,-0.06,-1.02,0.12,-0.06,-0.12,30.03,96724.53
520424,-0.09,-0.06,-1.02,0.01,-0.06,-0.16,30.03,96724.19
520459,-0.09,-0.06,-1.01,0.47,-0.09,-0.01,30.03,96724.19
520497,-0.09,-0.05,-1.02,0.24,0.15,0,30.03,96727.21
520535,-0.09,-0.05,-1.02,0.28,0.09,0.13,30.03,96727.21
520574,-0.09,-0.05,-1.02,0.18,0.26,0.16,30.02,96723
520610,-0.09,-0.05,-1.03,0.15,0.08,-0.1,30.03,96724.03
520649,-0.09,-0.05,-1.02,0.35,0.06,-0.04,30.03,96724.03
520688,-0.1,-0.05,-1.02,0.03,-0.12,-0.04,30.03,96726.02
520723,-0.09,-0.05,-1.02,0.01,-0.08,0.03,30.03,96726.02
520759,-0.09,-0.05,-1.02,0.21,-0.03,-0.13,30.03,96726.02
520798,-0.09,-0.06,-1.02,0.18,0.12,-0.12,30.03,96726.02
520835,-0.09,-0.06,-1.02,0.19,0.21,-0.1,30.03,96727.18
520875,-0.09,-0.05,-1.02,0.03,0.06,-0.12,30.03,96725.89
520911,-0.09,-0.06,-1.01,0.38,-0.01,0,30.03,96725.89
520949,-0.09,-0.05,-1.03,0.1,-0.01,-0.16,30.03,96724.86
520986,-0.09,-0.05,-1.01,0.24,-0.01,-0.1,30.03,96724.86
521022,-0.09,-0.05,-1.02,0.22,0.14,-0.06,30.03,96727.35
521059,-0.09,-0.05,-1.02,0.1,0.12,-0.09,30.03,96727.35
521097,-0.09,-0.06,-1.01,0.36,-0.3,-0.19,30.03,96725.19
521134,-0.09,-0.05,-1.02,0.13,0.09,-0.18,30.03,96726.45
521169,-0.09,-0.05,-1.02,0.25,-0.01,-0.04,30.03,96726.45
521211,-0.09,-0.05,-1.01,0.24,0.25,0.13,30.03,96726.55
521248,-0.09,-0.05,-1.02,0.04,0.11,-0.04,30.03,96726.55
521285,-0.09,-0.06,-1.02,0.18,-0.18,-0.1,30.03,96726.52
521322,-0.09,-0.05,-1.01,0.01,0.02,-0.21,30.03,96726.52
521359,-0.09,-0.05,-1.02,0.01,-0.01,-0.16,30.03,96725.22
521396,-0.09,-0.06,-1.02,0.33,0.34,-0.1,30.03,96729.21
521433,-0.09,-0.05,-1.02,0.12,-0.06,-0.12,30.03,96729.21
521469,-0.09,-0.05,-1.02,0.09,-0.09,-0.06,30.03,96729.04
521509,-0.09,-0.05,-1.02,0.1,0.08,-0.01,30.03,96729.04
521546,-0.09,-0.06,-1.03,0.32,0.08,-0.04,30.03,96726.39
521584,-0.09,-0.06,-1.02,0.22,0.18,0.07,30.03,96725.39
521621,-0.09,-0.06,-1.02,0.21,0,-0.03,30.03,96725.03
521657,-0.09,-0.05,-1.02,0.28,0.02,-0.04,30.02,96726.99
521694,-0.09,-0.05,-1.02,0.18,0.05,0.03,30.02,96726.99
521732,-0.09,-0.06,-1.02,0.13,0.02,0.02,30.03,96724.75
521768,-0.09,-0.06,-1.02,0.19,0.09,-0.32,30.03,96724.75
521805,-0.09,-0.06,-1.02,0.28,0.06,0.16,30.03,96723.57
521866,-0.09,-0.05,-1.02,-0.05,0.23,0.05,30.03,96726.58
521904,-0.09,-0.06,-1.02,0.25,0.18,-0.16,30.03,96726.58
521939,-0.09,-0.05,-1.02,0.25,0.09,0,30.03,96726.89
521975,-0.09,-0.06,-1.02,0.22,0.2,0.02,30.03,96726.89
522014,-0.09,-0.05,-1.02,0.24,0.15,-0.07,30.03,96724.36
522053,-0.09,-0.05,-1.02,0.21,0.06,0.16,30.03,96725.06
522088,-0.09,-0.06,-1.02,0.22,0.03,-0.09,30.03,96725.06
522124,-0.1,-0.05,-1.02,-0.01,0.05,0.14,30.03,96728.08
522163,-0.09,-0.05,-1.02,0.16,0.34,0.19,30.03,96728.08
522204,-0.09,-0.06,-1.03,0.21,0.12,-0.29,30.03,96722.03
522240,-0.09,-0.06,-1.02,0.04,0.11,-0.27,30.03,96722.03
522276,-0.09,-0.05,-1.02,0.04,-0.06,0.11,30.03,96724.26
522314,-0.09,-0.06,-1.02,0.18,-0.24,0.07,30.03,96724.36
522351,-0.09,-0.06,-1.02,0.04,0.34,-0.15,30.03,96724.36
522387,-0.09,-0.05,-1.02,0.28,0.02,-0.07,30.02,96724.83
522424,-0.09,-0.06,-1.02,0.18,0.28,-0.07,30.02,96724.83
522462,-0.09,-0.05,-1.02,0.35,0.06,-0.15,30.03,96724.69
522503,-0.09,-0.05,-1.02,0.28,0.18,-0.06,30.03,96725.35
522540,-0.09,-0.05,-1.02,0.48,-0.11,-0.03,30.03,96725.35
522576,-0.09,-0.05,-1.02,0.35,0.14,-0.15,30.03,96727.75
522613,-0.09,-0.06,-1.02,-0.01,-0.12,-0.06,30.03,96727.75
522649,-0.09,-0.06,-1.01,0.06,-0.06,-0.1,30.03,96725.85
522687,-0.09,-0.05,-1.02,0.15,0.15,-0.09,30.03,96725.85
522724,-0.09,-0.05,-1.02,0.03,-0.2,0.02,30.03,96725.69
522760,-0.09,-0.05,-1.03,0.12,0.08,0.13,30.03,96725.69
522797,-0.09,-0.05,-1.01,0.01,-0.03,-0.16,30.03,96725.22
